...1,participant,Sub_ID,Gender,Age,CorrectAns,BlockType,response_training_2.rt,trial_n,block_n,run_n,block_type_n,AQ_score,social_interaction_spontaneity,communication_reciprocity,social_dimensions,AQ_group,med_split
1,alka88,alka88,female,33,TRUE,nonsocial,1.2295,36,2,2,1,13,5,3,8,Q3,High AQ
2,alka88,alka88,female,33,TRUE,social,1.3245,1,1,0,1,13,5,3,8,Q3,High AQ
3,alka88,alka88,female,33,FALSE,social,1.1666,2,1,0,1,13,5,3,8,Q3,High AQ
4,alka88,alka88,female,33,TRUE,nonsocial,0.8965,40,2,3,1,13,5,3,8,Q3,High AQ
5,alka88,alka88,female,33,TRUE,nonsocial,1.552,37,2,3,1,13,5,3,8,Q3,High AQ
6,alka88,alka88,female,33,TRUE,nonsocial,1.4794,38,2,3,1,13,5,3,8,Q3,High AQ
7,alka88,alka88,female,33,TRUE,nonsocial,2.0665,35,2,2,1,13,5,3,8,Q3,High AQ
8,alka88,alka88,female,33,TRUE,social,3.222,5,1,1,1,13,5,3,8,Q3,High AQ
9,alka88,alka88,female,33,FALSE,social,2.0002,49,3,0,2,13,5,3,8,Q3,High AQ
10,alka88,alka88,female,33,FALSE,social,1.4336,50,3,0,2,13,5,3,8,Q3,High AQ
11,alka88,alka88,female,33,TRUE,nonsocial,1.3308,39,2,3,1,13,5,3,8,Q3,High AQ
12,alka88,alka88,female,33,FALSE,nonsocial,1.5339,48,2,5,1,13,5,3,8,Q3,High AQ
13,alka88,alka88,female,33,TRUE,social,1.62,53,3,1,2,13,5,3,8,Q3,High AQ
14,alka88,alka88,female,33,FALSE,social,2.3142,54,3,1,2,13,5,3,8,Q3,High AQ
15,alka88,alka88,female,33,FALSE,social,1.0467,51,3,0,2,13,5,3,8,Q3,High AQ
16,alka88,alka88,female,33,TRUE,social,1.1857,52,3,0,2,13,5,3,8,Q3,High AQ
17,alka88,alka88,female,33,TRUE,social,4.5534,17,1,4,1,13,5,3,8,Q3,High AQ
18,alka88,alka88,female,33,TRUE,social,2.9002,6,1,1,1,13,5,3,8,Q3,High AQ
19,alka88,alka88,female,33,TRUE,social,1.0403,15,1,3,1,13,5,3,8,Q3,High AQ
20,alka88,alka88,female,33,TRUE,social,1.0245,16,1,3,1,13,5,3,8,Q3,High AQ
21,alka88,alka88,female,33,FALSE,social,1.0108,20,1,4,1,13,5,3,8,Q3,High AQ
22,alka88,alka88,female,33,TRUE,social,5.8432,21,1,5,1,13,5,3,8,Q3,High AQ
23,alka88,alka88,female,33,TRUE,social,0.5782,22,1,5,1,13,5,3,8,Q3,High AQ
24,alka88,alka88,female,33,TRUE,social,1.5579,23,1,5,1,13,5,3,8,Q3,High AQ
25,alka88,alka88,female,33,TRUE,social,3.702,24,1,5,1,13,5,3,8,Q3,High AQ
26,alka88,alka88,female,33,FALSE,nonsocial,3.3809,25,2,0,1,13,5,3,8,Q3,High AQ
27,alka88,alka88,female,33,FALSE,nonsocial,2.2294,26,2,0,1,13,5,3,8,Q3,High AQ
28,alka88,alka88,female,33,FALSE,nonsocial,1.8416,27,2,0,1,13,5,3,8,Q3,High AQ
29,alka88,alka88,female,33,TRUE,nonsocial,2.0605,28,2,0,1,13,5,3,8,Q3,High AQ
30,alka88,alka88,female,33,TRUE,nonsocial,3.0908,29,2,1,1,13,5,3,8,Q3,High AQ
31,alka88,alka88,female,33,TRUE,nonsocial,1.8996,30,2,1,1,13,5,3,8,Q3,High AQ
32,alka88,alka88,female,33,TRUE,nonsocial,0.8925,31,2,1,1,13,5,3,8,Q3,High AQ
33,alka88,alka88,female,33,FALSE,nonsocial,1.7895,32,2,1,1,13,5,3,8,Q3,High AQ
34,alka88,alka88,female,33,TRUE,nonsocial,1.008,33,2,2,1,13,5,3,8,Q3,High AQ
35,alka88,alka88,female,33,TRUE,nonsocial,1.3853,34,2,2,1,13,5,3,8,Q3,High AQ
36,alka88,alka88,female,33,FALSE,nonsocial,1.4836,75,4,0,2,13,5,3,8,Q3,High AQ
37,alka88,alka88,female,33,TRUE,nonsocial,1.0907,76,4,0,2,13,5,3,8,Q3,High AQ
38,alka88,alka88,female,33,TRUE,nonsocial,2.4508,77,4,1,2,13,5,3,8,Q3,High AQ
39,alka88,alka88,female,33,FALSE,nonsocial,0.6657,78,4,1,2,13,5,3,8,Q3,High AQ
40,alka88,alka88,female,33,FALSE,nonsocial,1.9801,79,4,1,2,13,5,3,8,Q3,High AQ
41,alka88,alka88,female,33,TRUE,nonsocial,0.4638,80,4,1,2,13,5,3,8,Q3,High AQ
42,alka88,alka88,female,33,TRUE,social,1.1617,3,1,0,1,13,5,3,8,Q3,High AQ
43,alka88,alka88,female,33,FALSE,social,2.8624,4,1,0,1,13,5,3,8,Q3,High AQ
44,alka88,alka88,female,33,TRUE,nonsocial,1.0676,44,2,4,1,13,5,3,8,Q3,High AQ
45,alka88,alka88,female,33,TRUE,nonsocial,1.0159,45,2,5,1,13,5,3,8,Q3,High AQ
46,alka88,alka88,female,33,TRUE,nonsocial,1.1326,46,2,5,1,13,5,3,8,Q3,High AQ
47,alka88,alka88,female,33,TRUE,nonsocial,1.2484,47,2,5,1,13,5,3,8,Q3,High AQ
48,alka88,alka88,female,33,TRUE,nonsocial,0.5312,88,4,3,2,13,5,3,8,Q3,High AQ
49,alka88,alka88,female,33,TRUE,nonsocial,1.6994,89,4,4,2,13,5,3,8,Q3,High AQ
50,alka88,alka88,female,33,TRUE,nonsocial,0.8905,90,4,4,2,13,5,3,8,Q3,High AQ
51,alka88,alka88,female,33,TRUE,nonsocial,1.3647,91,4,4,2,13,5,3,8,Q3,High AQ
52,alka88,alka88,female,33,TRUE,nonsocial,0.8306,92,4,4,2,13,5,3,8,Q3,High AQ
53,alka88,alka88,female,33,TRUE,nonsocial,0.6965,93,4,5,2,13,5,3,8,Q3,High AQ
54,alka88,alka88,female,33,FALSE,nonsocial,1.6786,94,4,5,2,13,5,3,8,Q3,High AQ
55,alka88,alka88,female,33,TRUE,social,3.1611,55,3,1,2,13,5,3,8,Q3,High AQ
56,alka88,alka88,female,33,FALSE,social,1.6327,56,3,1,2,13,5,3,8,Q3,High AQ
57,alka88,alka88,female,33,TRUE,social,1.9243,57,3,2,2,13,5,3,8,Q3,High AQ
58,alka88,alka88,female,33,TRUE,social,1.0223,58,3,2,2,13,5,3,8,Q3,High AQ
59,alka88,alka88,female,33,TRUE,social,1.5973,59,3,2,2,13,5,3,8,Q3,High AQ
60,alka88,alka88,female,33,FALSE,social,2.3804,19,1,4,1,13,5,3,8,Q3,High AQ
61,alka88,alka88,female,33,TRUE,social,1.6436,60,3,2,2,13,5,3,8,Q3,High AQ
62,alka88,alka88,female,33,FALSE,social,1.5868,61,3,3,2,13,5,3,8,Q3,High AQ
63,alka88,alka88,female,33,TRUE,social,3.441,62,3,3,2,13,5,3,8,Q3,High AQ
64,alka88,alka88,female,33,TRUE,social,0.5302,63,3,3,2,13,5,3,8,Q3,High AQ
65,alka88,alka88,female,33,TRUE,social,0.5533,64,3,3,2,13,5,3,8,Q3,High AQ
66,alka88,alka88,female,33,FALSE,social,2.1332,65,3,4,2,13,5,3,8,Q3,High AQ
67,alka88,alka88,female,33,TRUE,social,1.1073,66,3,4,2,13,5,3,8,Q3,High AQ
68,alka88,alka88,female,33,TRUE,social,1.6794,67,3,4,2,13,5,3,8,Q3,High AQ
69,alka88,alka88,female,33,TRUE,social,0.4891,68,3,4,2,13,5,3,8,Q3,High AQ
70,alka88,alka88,female,33,TRUE,social,1.4499,69,3,5,2,13,5,3,8,Q3,High AQ
71,alka88,alka88,female,33,TRUE,social,0.7163,70,3,5,2,13,5,3,8,Q3,High AQ
72,alka88,alka88,female,33,FALSE,social,1.9016,71,3,5,2,13,5,3,8,Q3,High AQ
73,alka88,alka88,female,33,TRUE,social,1.4268,72,3,5,2,13,5,3,8,Q3,High AQ
74,alka88,alka88,female,33,TRUE,nonsocial,1.8212,73,4,0,2,13,5,3,8,Q3,High AQ
75,alka88,alka88,female,33,TRUE,nonsocial,1.1348,74,4,0,2,13,5,3,8,Q3,High AQ
76,alka88,alka88,female,33,TRUE,social,0.4964,8,1,1,1,13,5,3,8,Q3,High AQ
77,alka88,alka88,female,33,TRUE,social,2.5368,9,1,2,1,13,5,3,8,Q3,High AQ
78,alka88,alka88,female,33,TRUE,social,0.8677,10,1,2,1,13,5,3,8,Q3,High AQ
79,alka88,alka88,female,33,FALSE,social,2.1999,11,1,2,1,13,5,3,8,Q3,High AQ
80,alka88,alka88,female,33,FALSE,social,0.854,12,1,2,1,13,5,3,8,Q3,High AQ
81,alka88,alka88,female,33,FALSE,social,2.5733,13,1,3,1,13,5,3,8,Q3,High AQ
82,alka88,alka88,female,33,TRUE,nonsocial,1.3538,81,4,2,2,13,5,3,8,Q3,High AQ
83,alka88,alka88,female,33,TRUE,nonsocial,1.6242,41,2,4,1,13,5,3,8,Q3,High AQ
84,alka88,alka88,female,33,TRUE,nonsocial,2.7266,42,2,4,1,13,5,3,8,Q3,High AQ
85,alka88,alka88,female,33,TRUE,nonsocial,1.0289,43,2,4,1,13,5,3,8,Q3,High AQ
86,alka88,alka88,female,33,TRUE,nonsocial,1.958,85,4,3,2,13,5,3,8,Q3,High AQ
87,alka88,alka88,female,33,FALSE,nonsocial,1.4272,86,4,3,2,13,5,3,8,Q3,High AQ
88,alka88,alka88,female,33,FALSE,social,1.5486,7,1,1,1,13,5,3,8,Q3,High AQ
89,alka88,alka88,female,33,TRUE,nonsocial,0.6625,87,4,3,2,13,5,3,8,Q3,High AQ
90,alka88,alka88,female,33,TRUE,nonsocial,0.5779,83,4,2,2,13,5,3,8,Q3,High AQ
91,alka88,alka88,female,33,TRUE,social,1.5154,14,1,3,1,13,5,3,8,Q3,High AQ
92,alka88,alka88,female,33,TRUE,nonsocial,2.2702,95,4,5,2,13,5,3,8,Q3,High AQ
93,alka88,alka88,female,33,TRUE,nonsocial,2.1948,96,4,5,2,13,5,3,8,Q3,High AQ
94,alka88,alka88,female,33,FALSE,nonsocial,1.3308,82,4,2,2,13,5,3,8,Q3,High AQ
95,alka88,alka88,female,33,TRUE,social,0.7312,18,1,4,1,13,5,3,8,Q3,High AQ
96,alka88,alka88,female,33,TRUE,nonsocial,0.9543,84,4,2,2,13,5,3,8,Q3,High AQ
97,alsp92,alsp92,male,29,TRUE,nonsocial,1.2591,26,2,0,1,1,0,1,1,Q1,Low AQ
98,alsp92,alsp92,male,29,FALSE,social,1.3895,23,1,5,1,1,0,1,1,Q1,Low AQ
99,alsp92,alsp92,male,29,TRUE,social,2.484,24,1,5,1,1,0,1,1,Q1,Low AQ
100,alsp92,alsp92,male,29,FALSE,nonsocial,2.1357,25,2,0,1,1,0,1,1,Q1,Low AQ
101,alsp92,alsp92,male,29,FALSE,social,1.2188,7,1,1,1,1,0,1,1,Q1,Low AQ
102,alsp92,alsp92,male,29,TRUE,nonsocial,1.1002,27,2,0,1,1,0,1,1,Q1,Low AQ
103,alsp92,alsp92,male,29,FALSE,social,2.1012,9,1,2,1,1,0,1,1,Q1,Low AQ
104,alsp92,alsp92,male,29,FALSE,social,1.794,6,1,1,1,1,0,1,1,Q1,Low AQ
105,alsp92,alsp92,male,29,FALSE,social,0.6555,11,1,2,1,1,0,1,1,Q1,Low AQ
106,alsp92,alsp92,male,29,TRUE,social,1.1756,22,1,5,1,1,0,1,1,Q1,Low AQ
107,alsp92,alsp92,male,29,FALSE,social,2.4442,13,1,3,1,1,0,1,1,Q1,Low AQ
108,alsp92,alsp92,male,29,TRUE,social,1.0619,10,1,2,1,1,0,1,1,Q1,Low AQ
109,alsp92,alsp92,male,29,TRUE,social,1.6156,15,1,3,1,1,0,1,1,Q1,Low AQ
110,alsp92,alsp92,male,29,FALSE,social,0.9886,12,1,2,1,1,0,1,1,Q1,Low AQ
111,alsp92,alsp92,male,29,TRUE,nonsocial,0.6156,43,2,4,1,1,0,1,1,Q1,Low AQ
112,alsp92,alsp92,male,29,FALSE,social,1.7759,14,1,3,1,1,0,1,1,Q1,Low AQ
113,alsp92,alsp92,male,29,FALSE,social,1.8799,19,1,4,1,1,0,1,1,Q1,Low AQ
114,alsp92,alsp92,male,29,FALSE,social,1.0534,20,1,4,1,1,0,1,1,Q1,Low AQ
115,alsp92,alsp92,male,29,FALSE,social,1.6288,8,1,1,1,1,0,1,1,Q1,Low AQ
116,alsp92,alsp92,male,29,FALSE,social,0.7045,60,3,2,2,1,0,1,1,Q1,Low AQ
117,alsp92,alsp92,male,29,TRUE,social,1.2486,61,3,3,2,1,0,1,1,Q1,Low AQ
118,alsp92,alsp92,male,29,FALSE,social,0.7051,62,3,3,2,1,0,1,1,Q1,Low AQ
119,alsp92,alsp92,male,29,TRUE,social,0.5374,63,3,3,2,1,0,1,1,Q1,Low AQ
120,alsp92,alsp92,male,29,FALSE,social,0.3727,64,3,3,2,1,0,1,1,Q1,Low AQ
121,alsp92,alsp92,male,29,FALSE,social,0.9111,65,3,4,2,1,0,1,1,Q1,Low AQ
122,alsp92,alsp92,male,29,FALSE,social,0.6972,66,3,4,2,1,0,1,1,Q1,Low AQ
123,alsp92,alsp92,male,29,FALSE,social,1.4776,16,1,3,1,1,0,1,1,Q1,Low AQ
124,alsp92,alsp92,male,29,TRUE,social,2.1377,17,1,4,1,1,0,1,1,Q1,Low AQ
125,alsp92,alsp92,male,29,TRUE,social,2.5521,18,1,4,1,1,0,1,1,Q1,Low AQ
126,alsp92,alsp92,male,29,TRUE,nonsocial,0.6342,30,2,1,1,1,0,1,1,Q1,Low AQ
127,alsp92,alsp92,male,29,TRUE,nonsocial,0.7534,31,2,1,1,1,0,1,1,Q1,Low AQ
128,alsp92,alsp92,male,29,FALSE,social,1.5277,21,1,5,1,1,0,1,1,Q1,Low AQ
129,alsp92,alsp92,male,29,FALSE,nonsocial,0.9592,73,4,0,2,1,0,1,1,Q1,Low AQ
130,alsp92,alsp92,male,29,TRUE,nonsocial,0.5448,74,4,0,2,1,0,1,1,Q1,Low AQ
131,alsp92,alsp92,male,29,FALSE,nonsocial,0.3737,75,4,0,2,1,0,1,1,Q1,Low AQ
132,alsp92,alsp92,male,29,TRUE,nonsocial,1.4596,76,4,0,2,1,0,1,1,Q1,Low AQ
133,alsp92,alsp92,male,29,TRUE,nonsocial,1.4815,77,4,1,2,1,0,1,1,Q1,Low AQ
134,alsp92,alsp92,male,29,FALSE,nonsocial,0.5735,78,4,1,2,1,0,1,1,Q1,Low AQ
135,alsp92,alsp92,male,29,TRUE,nonsocial,1.5028,79,4,1,2,1,0,1,1,Q1,Low AQ
136,alsp92,alsp92,male,29,TRUE,nonsocial,1.5523,41,2,4,1,1,0,1,1,Q1,Low AQ
137,alsp92,alsp92,male,29,TRUE,nonsocial,0.9585,42,2,4,1,1,0,1,1,Q1,Low AQ
138,alsp92,alsp92,male,29,TRUE,nonsocial,0.594,82,4,2,2,1,0,1,1,Q1,Low AQ
139,alsp92,alsp92,male,29,FALSE,nonsocial,0.4566,83,4,2,2,1,0,1,1,Q1,Low AQ
140,alsp92,alsp92,male,29,TRUE,nonsocial,0.7706,84,4,2,2,1,0,1,1,Q1,Low AQ
141,alsp92,alsp92,male,29,FALSE,social,2.9831,5,1,1,1,1,0,1,1,Q1,Low AQ
142,alsp92,alsp92,male,29,TRUE,nonsocial,1.1243,45,2,5,1,1,0,1,1,Q1,Low AQ
143,alsp92,alsp92,male,29,TRUE,nonsocial,0.7453,46,2,5,1,1,0,1,1,Q1,Low AQ
144,alsp92,alsp92,male,29,TRUE,nonsocial,0.7611,47,2,5,1,1,0,1,1,Q1,Low AQ
145,alsp92,alsp92,male,29,TRUE,nonsocial,0.5366,48,2,5,1,1,0,1,1,Q1,Low AQ
146,alsp92,alsp92,male,29,FALSE,social,1.0325,49,3,0,2,1,0,1,1,Q1,Low AQ
147,alsp92,alsp92,male,29,TRUE,social,1.3435,50,3,0,2,1,0,1,1,Q1,Low AQ
148,alsp92,alsp92,male,29,FALSE,social,0.8427,51,3,0,2,1,0,1,1,Q1,Low AQ
149,alsp92,alsp92,male,29,TRUE,social,0.4446,52,3,0,2,1,0,1,1,Q1,Low AQ
150,alsp92,alsp92,male,29,FALSE,social,1.2304,53,3,1,2,1,0,1,1,Q1,Low AQ
151,alsp92,alsp92,male,29,TRUE,social,0.862,54,3,1,2,1,0,1,1,Q1,Low AQ
152,alsp92,alsp92,male,29,FALSE,social,0.5036,55,3,1,2,1,0,1,1,Q1,Low AQ
153,alsp92,alsp92,male,29,TRUE,social,0.4022,56,3,1,2,1,0,1,1,Q1,Low AQ
154,alsp92,alsp92,male,29,FALSE,social,0.9152,57,3,2,2,1,0,1,1,Q1,Low AQ
155,alsp92,alsp92,male,29,TRUE,social,0.5516,58,3,2,2,1,0,1,1,Q1,Low AQ
156,alsp92,alsp92,male,29,TRUE,social,0.7405,59,3,2,2,1,0,1,1,Q1,Low AQ
157,alsp92,alsp92,male,29,FALSE,nonsocial,NA,33,2,2,1,1,0,1,1,Q1,Low AQ
158,alsp92,alsp92,male,29,FALSE,nonsocial,0.9379,34,2,2,1,1,0,1,1,Q1,Low AQ
159,alsp92,alsp92,male,29,TRUE,nonsocial,1.3757,35,2,2,1,1,0,1,1,Q1,Low AQ
160,alsp92,alsp92,male,29,TRUE,nonsocial,1.0569,36,2,2,1,1,0,1,1,Q1,Low AQ
161,alsp92,alsp92,male,29,TRUE,nonsocial,1.2447,37,2,3,1,1,0,1,1,Q1,Low AQ
162,alsp92,alsp92,male,29,TRUE,nonsocial,1.2908,38,2,3,1,1,0,1,1,Q1,Low AQ
163,alsp92,alsp92,male,29,FALSE,nonsocial,1.094,80,4,1,2,1,0,1,1,Q1,Low AQ
164,alsp92,alsp92,male,29,FALSE,nonsocial,0.6675,28,2,0,1,1,0,1,1,Q1,Low AQ
165,alsp92,alsp92,male,29,FALSE,nonsocial,1.4419,29,2,1,1,1,0,1,1,Q1,Low AQ
166,alsp92,alsp92,male,29,TRUE,social,0.5726,70,3,5,2,1,0,1,1,Q1,Low AQ
167,alsp92,alsp92,male,29,TRUE,social,1.097,71,3,5,2,1,0,1,1,Q1,Low AQ
168,alsp92,alsp92,male,29,TRUE,social,0.5751,72,3,5,2,1,0,1,1,Q1,Low AQ
169,alsp92,alsp92,male,29,TRUE,nonsocial,0.5022,32,2,1,1,1,0,1,1,Q1,Low AQ
170,alsp92,alsp92,male,29,TRUE,nonsocial,1.3824,85,4,3,2,1,0,1,1,Q1,Low AQ
171,alsp92,alsp92,male,29,TRUE,nonsocial,0.6974,86,4,3,2,1,0,1,1,Q1,Low AQ
172,alsp92,alsp92,male,29,FALSE,nonsocial,0.9897,87,4,3,2,1,0,1,1,Q1,Low AQ
173,alsp92,alsp92,male,29,TRUE,nonsocial,0.4695,88,4,3,2,1,0,1,1,Q1,Low AQ
174,alsp92,alsp92,male,29,FALSE,nonsocial,1.1456,89,4,4,2,1,0,1,1,Q1,Low AQ
175,alsp92,alsp92,male,29,FALSE,nonsocial,1.0045,90,4,4,2,1,0,1,1,Q1,Low AQ
176,alsp92,alsp92,male,29,TRUE,nonsocial,0.4355,91,4,4,2,1,0,1,1,Q1,Low AQ
177,alsp92,alsp92,male,29,TRUE,nonsocial,1.2563,81,4,2,2,1,0,1,1,Q1,Low AQ
178,alsp92,alsp92,male,29,FALSE,social,0.8507,1,1,0,1,1,0,1,1,Q1,Low AQ
179,alsp92,alsp92,male,29,TRUE,social,1.0479,2,1,0,1,1,0,1,1,Q1,Low AQ
180,alsp92,alsp92,male,29,TRUE,social,0.8835,3,1,0,1,1,0,1,1,Q1,Low AQ
181,alsp92,alsp92,male,29,FALSE,social,0.4879,4,1,0,1,1,0,1,1,Q1,Low AQ
182,alsp92,alsp92,male,29,TRUE,nonsocial,0.3766,44,2,4,1,1,0,1,1,Q1,Low AQ
183,alsp92,alsp92,male,29,TRUE,nonsocial,1.0197,93,4,5,2,1,0,1,1,Q1,Low AQ
184,alsp92,alsp92,male,29,TRUE,nonsocial,0.8093,94,4,5,2,1,0,1,1,Q1,Low AQ
185,alsp92,alsp92,male,29,TRUE,nonsocial,0.8135,95,4,5,2,1,0,1,1,Q1,Low AQ
186,alsp92,alsp92,male,29,TRUE,nonsocial,0.9383,92,4,4,2,1,0,1,1,Q1,Low AQ
187,alsp92,alsp92,male,29,TRUE,nonsocial,0.5437,39,2,3,1,1,0,1,1,Q1,Low AQ
188,alsp92,alsp92,male,29,TRUE,social,0.3565,67,3,4,2,1,0,1,1,Q1,Low AQ
189,alsp92,alsp92,male,29,TRUE,social,0.8703,68,3,4,2,1,0,1,1,Q1,Low AQ
190,alsp92,alsp92,male,29,FALSE,nonsocial,0.842,96,4,5,2,1,0,1,1,Q1,Low AQ
191,alsp92,alsp92,male,29,TRUE,nonsocial,0.4332,40,2,3,1,1,0,1,1,Q1,Low AQ
192,alsp92,alsp92,male,29,FALSE,social,0.7738,69,3,5,2,1,0,1,1,Q1,Low AQ
193,anfi01,anfi01,female,21,TRUE,nonsocial,0.9578,44,2,4,1,9,1,3,4,median,Low AQ
194,anfi01,anfi01,female,21,FALSE,nonsocial,2.6011,45,2,5,1,9,1,3,4,median,Low AQ
195,anfi01,anfi01,female,21,TRUE,nonsocial,1.285,48,2,5,1,9,1,3,4,median,Low AQ
196,anfi01,anfi01,female,21,TRUE,social,2.6939,49,3,0,2,9,1,3,4,median,Low AQ
197,anfi01,anfi01,female,21,TRUE,nonsocial,1.5223,46,2,5,1,9,1,3,4,median,Low AQ
198,anfi01,anfi01,female,21,TRUE,nonsocial,0.6145,47,2,5,1,9,1,3,4,median,Low AQ
199,anfi01,anfi01,female,21,TRUE,nonsocial,4.2412,29,2,1,1,9,1,3,4,median,Low AQ
200,anfi01,anfi01,female,21,TRUE,nonsocial,3.0529,43,2,4,1,9,1,3,4,median,Low AQ
201,anfi01,anfi01,female,21,TRUE,social,2.6073,50,3,0,2,9,1,3,4,median,Low AQ
202,anfi01,anfi01,female,21,TRUE,nonsocial,2.8852,85,4,3,2,9,1,3,4,median,Low AQ
203,anfi01,anfi01,female,21,TRUE,nonsocial,0.5774,86,4,3,2,9,1,3,4,median,Low AQ
204,anfi01,anfi01,female,21,TRUE,nonsocial,0.6728,87,4,3,2,9,1,3,4,median,Low AQ
205,anfi01,anfi01,female,21,TRUE,nonsocial,0.3602,84,4,2,2,9,1,3,4,median,Low AQ
206,anfi01,anfi01,female,21,TRUE,nonsocial,0.9977,89,4,4,2,9,1,3,4,median,Low AQ
207,anfi01,anfi01,female,21,TRUE,social,0.8978,53,3,1,2,9,1,3,4,median,Low AQ
208,anfi01,anfi01,female,21,TRUE,nonsocial,1.2392,42,2,4,1,9,1,3,4,median,Low AQ
209,anfi01,anfi01,female,21,TRUE,nonsocial,2.0131,88,4,3,2,9,1,3,4,median,Low AQ
210,anfi01,anfi01,female,21,TRUE,social,1.341,17,1,4,1,9,1,3,4,median,Low AQ
211,anfi01,anfi01,female,21,TRUE,social,0.8762,18,1,4,1,9,1,3,4,median,Low AQ
212,anfi01,anfi01,female,21,TRUE,social,0.8678,19,1,4,1,9,1,3,4,median,Low AQ
213,anfi01,anfi01,female,21,TRUE,social,0.8266,16,1,3,1,9,1,3,4,median,Low AQ
214,anfi01,anfi01,female,21,TRUE,social,1.2354,21,1,5,1,9,1,3,4,median,Low AQ
215,anfi01,anfi01,female,21,TRUE,social,0.7578,22,1,5,1,9,1,3,4,median,Low AQ
216,anfi01,anfi01,female,21,TRUE,nonsocial,0.7948,90,4,4,2,9,1,3,4,median,Low AQ
217,anfi01,anfi01,female,21,TRUE,social,0.6421,20,1,4,1,9,1,3,4,median,Low AQ
218,anfi01,anfi01,female,21,TRUE,social,0.3191,64,3,3,2,9,1,3,4,median,Low AQ
219,anfi01,anfi01,female,21,TRUE,social,0.8597,65,3,4,2,9,1,3,4,median,Low AQ
220,anfi01,anfi01,female,21,TRUE,social,0.9636,66,3,4,2,9,1,3,4,median,Low AQ
221,anfi01,anfi01,female,21,TRUE,social,1.3461,54,3,1,2,9,1,3,4,median,Low AQ
222,anfi01,anfi01,female,21,TRUE,nonsocial,2.9299,28,2,0,1,9,1,3,4,median,Low AQ
223,anfi01,anfi01,female,21,FALSE,nonsocial,1.7986,30,2,1,1,9,1,3,4,median,Low AQ
224,anfi01,anfi01,female,21,FALSE,nonsocial,3.3159,31,2,1,1,9,1,3,4,median,Low AQ
225,anfi01,anfi01,female,21,TRUE,nonsocial,1.5887,32,2,1,1,9,1,3,4,median,Low AQ
226,anfi01,anfi01,female,21,FALSE,nonsocial,NA,33,2,2,1,9,1,3,4,median,Low AQ
227,anfi01,anfi01,female,21,FALSE,nonsocial,2.0471,34,2,2,1,9,1,3,4,median,Low AQ
228,anfi01,anfi01,female,21,TRUE,nonsocial,1.2485,35,2,2,1,9,1,3,4,median,Low AQ
229,anfi01,anfi01,female,21,TRUE,nonsocial,2.0296,36,2,2,1,9,1,3,4,median,Low AQ
230,anfi01,anfi01,female,21,TRUE,nonsocial,1.5662,37,2,3,1,9,1,3,4,median,Low AQ
231,anfi01,anfi01,female,21,TRUE,nonsocial,0.8129,38,2,3,1,9,1,3,4,median,Low AQ
232,anfi01,anfi01,female,21,TRUE,nonsocial,0.6488,39,2,3,1,9,1,3,4,median,Low AQ
233,anfi01,anfi01,female,21,TRUE,nonsocial,0.4234,40,2,3,1,9,1,3,4,median,Low AQ
234,anfi01,anfi01,female,21,TRUE,nonsocial,0.9547,41,2,4,1,9,1,3,4,median,Low AQ
235,anfi01,anfi01,female,21,TRUE,social,2.5397,1,1,0,1,9,1,3,4,median,Low AQ
236,anfi01,anfi01,female,21,TRUE,social,4.2744,2,1,0,1,9,1,3,4,median,Low AQ
237,anfi01,anfi01,female,21,FALSE,social,3.359,3,1,0,1,9,1,3,4,median,Low AQ
238,anfi01,anfi01,female,21,FALSE,social,3.0358,4,1,0,1,9,1,3,4,median,Low AQ
239,anfi01,anfi01,female,21,TRUE,social,1.5924,5,1,1,1,9,1,3,4,median,Low AQ
240,anfi01,anfi01,female,21,TRUE,social,4.8498,6,1,1,1,9,1,3,4,median,Low AQ
241,anfi01,anfi01,female,21,TRUE,social,0.8634,7,1,1,1,9,1,3,4,median,Low AQ
242,anfi01,anfi01,female,21,TRUE,social,1.1069,8,1,1,1,9,1,3,4,median,Low AQ
243,anfi01,anfi01,female,21,TRUE,social,2.6801,9,1,2,1,9,1,3,4,median,Low AQ
244,anfi01,anfi01,female,21,TRUE,social,1.7168,10,1,2,1,9,1,3,4,median,Low AQ
245,anfi01,anfi01,female,21,TRUE,social,0.6223,51,3,0,2,9,1,3,4,median,Low AQ
246,anfi01,anfi01,female,21,TRUE,social,2.1704,52,3,0,2,9,1,3,4,median,Low AQ
247,anfi01,anfi01,female,21,TRUE,nonsocial,1.0771,94,4,5,2,9,1,3,4,median,Low AQ
248,anfi01,anfi01,female,21,TRUE,nonsocial,0.4449,95,4,5,2,9,1,3,4,median,Low AQ
249,anfi01,anfi01,female,21,TRUE,nonsocial,0.7919,96,4,5,2,9,1,3,4,median,Low AQ
250,anfi01,anfi01,female,21,TRUE,social,1.744,55,3,1,2,9,1,3,4,median,Low AQ
251,anfi01,anfi01,female,21,TRUE,social,0.904,56,3,1,2,9,1,3,4,median,Low AQ
252,anfi01,anfi01,female,21,TRUE,social,1.2559,57,3,2,2,9,1,3,4,median,Low AQ
253,anfi01,anfi01,female,21,TRUE,social,2.0333,58,3,2,2,9,1,3,4,median,Low AQ
254,anfi01,anfi01,female,21,TRUE,social,0.8297,59,3,2,2,9,1,3,4,median,Low AQ
255,anfi01,anfi01,female,21,TRUE,social,1.1604,60,3,2,2,9,1,3,4,median,Low AQ
256,anfi01,anfi01,female,21,TRUE,social,1.1265,61,3,3,2,9,1,3,4,median,Low AQ
257,anfi01,anfi01,female,21,TRUE,social,1.1672,62,3,3,2,9,1,3,4,median,Low AQ
258,anfi01,anfi01,female,21,TRUE,social,0.5724,63,3,3,2,9,1,3,4,median,Low AQ
259,anfi01,anfi01,female,21,TRUE,social,2.2197,23,1,5,1,9,1,3,4,median,Low AQ
260,anfi01,anfi01,female,21,TRUE,social,1.8454,24,1,5,1,9,1,3,4,median,Low AQ
261,anfi01,anfi01,female,21,FALSE,nonsocial,1.8854,25,2,0,1,9,1,3,4,median,Low AQ
262,anfi01,anfi01,female,21,FALSE,nonsocial,1.9182,26,2,0,1,9,1,3,4,median,Low AQ
263,anfi01,anfi01,female,21,FALSE,nonsocial,3.0104,27,2,0,1,9,1,3,4,median,Low AQ
264,anfi01,anfi01,female,21,TRUE,social,0.9265,69,3,5,2,9,1,3,4,median,Low AQ
265,anfi01,anfi01,female,21,TRUE,social,1.2753,70,3,5,2,9,1,3,4,median,Low AQ
266,anfi01,anfi01,female,21,TRUE,social,0.9245,71,3,5,2,9,1,3,4,median,Low AQ
267,anfi01,anfi01,female,21,TRUE,social,0.6347,72,3,5,2,9,1,3,4,median,Low AQ
268,anfi01,anfi01,female,21,FALSE,nonsocial,2.222,73,4,0,2,9,1,3,4,median,Low AQ
269,anfi01,anfi01,female,21,FALSE,nonsocial,0.8747,74,4,0,2,9,1,3,4,median,Low AQ
270,anfi01,anfi01,female,21,FALSE,nonsocial,0.4939,75,4,0,2,9,1,3,4,median,Low AQ
271,anfi01,anfi01,female,21,FALSE,nonsocial,0.6557,76,4,0,2,9,1,3,4,median,Low AQ
272,anfi01,anfi01,female,21,FALSE,nonsocial,2.7761,77,4,1,2,9,1,3,4,median,Low AQ
273,anfi01,anfi01,female,21,TRUE,nonsocial,0.8191,78,4,1,2,9,1,3,4,median,Low AQ
274,anfi01,anfi01,female,21,TRUE,nonsocial,0.717,79,4,1,2,9,1,3,4,median,Low AQ
275,anfi01,anfi01,female,21,TRUE,nonsocial,0.6355,80,4,1,2,9,1,3,4,median,Low AQ
276,anfi01,anfi01,female,21,TRUE,nonsocial,2.0985,81,4,2,2,9,1,3,4,median,Low AQ
277,anfi01,anfi01,female,21,TRUE,nonsocial,1.3796,82,4,2,2,9,1,3,4,median,Low AQ
278,anfi01,anfi01,female,21,TRUE,nonsocial,0.9817,83,4,2,2,9,1,3,4,median,Low AQ
279,anfi01,anfi01,female,21,TRUE,social,1.3151,13,1,3,1,9,1,3,4,median,Low AQ
280,anfi01,anfi01,female,21,TRUE,social,2.5565,14,1,3,1,9,1,3,4,median,Low AQ
281,anfi01,anfi01,female,21,TRUE,social,4.2352,11,1,2,1,9,1,3,4,median,Low AQ
282,anfi01,anfi01,female,21,TRUE,social,1.1052,12,1,2,1,9,1,3,4,median,Low AQ
283,anfi01,anfi01,female,21,TRUE,nonsocial,0.9386,91,4,4,2,9,1,3,4,median,Low AQ
284,anfi01,anfi01,female,21,TRUE,nonsocial,0.4532,92,4,4,2,9,1,3,4,median,Low AQ
285,anfi01,anfi01,female,21,TRUE,social,0.6949,15,1,3,1,9,1,3,4,median,Low AQ
286,anfi01,anfi01,female,21,TRUE,social,0.5798,68,3,4,2,9,1,3,4,median,Low AQ
287,anfi01,anfi01,female,21,TRUE,nonsocial,2.0037,93,4,5,2,9,1,3,4,median,Low AQ
288,anfi01,anfi01,female,21,TRUE,social,2.0071,67,3,4,2,9,1,3,4,median,Low AQ
289,ango96,ango96,female,26,TRUE,social,0.9269,72,3,5,2,3,0,2,2,Q1,Low AQ
290,ango96,ango96,female,26,TRUE,nonsocial,1.3302,73,4,0,2,3,0,2,2,Q1,Low AQ
291,ango96,ango96,female,26,TRUE,nonsocial,1.0046,76,4,0,2,3,0,2,2,Q1,Low AQ
292,ango96,ango96,female,26,TRUE,nonsocial,2.7292,77,4,1,2,3,0,2,2,Q1,Low AQ
293,ango96,ango96,female,26,TRUE,nonsocial,1.01,74,4,0,2,3,0,2,2,Q1,Low AQ
294,ango96,ango96,female,26,FALSE,nonsocial,0.7644,75,4,0,2,3,0,2,2,Q1,Low AQ
295,ango96,ango96,female,26,TRUE,social,0.7508,2,1,0,1,3,0,2,2,Q1,Low AQ
296,ango96,ango96,female,26,TRUE,social,0.6864,3,1,0,1,3,0,2,2,Q1,Low AQ
297,ango96,ango96,female,26,TRUE,social,0.5788,4,1,0,1,3,0,2,2,Q1,Low AQ
298,ango96,ango96,female,26,TRUE,social,1.1597,5,1,1,1,3,0,2,2,Q1,Low AQ
299,ango96,ango96,female,26,TRUE,social,0.735,6,1,1,1,3,0,2,2,Q1,Low AQ
300,ango96,ango96,female,26,FALSE,social,1.2134,7,1,1,1,3,0,2,2,Q1,Low AQ
301,ango96,ango96,female,26,FALSE,social,0.6176,8,1,1,1,3,0,2,2,Q1,Low AQ
302,ango96,ango96,female,26,TRUE,social,1.1026,9,1,2,1,3,0,2,2,Q1,Low AQ
303,ango96,ango96,female,26,TRUE,social,0.6933,1,1,0,1,3,0,2,2,Q1,Low AQ
304,ango96,ango96,female,26,FALSE,social,0.7454,57,3,2,2,3,0,2,2,Q1,Low AQ
305,ango96,ango96,female,26,TRUE,social,1.2464,58,3,2,2,3,0,2,2,Q1,Low AQ
306,ango96,ango96,female,26,TRUE,social,1.3889,59,3,2,2,3,0,2,2,Q1,Low AQ
307,ango96,ango96,female,26,TRUE,social,1.2563,60,3,2,2,3,0,2,2,Q1,Low AQ
308,ango96,ango96,female,26,TRUE,social,1.0785,61,3,3,2,3,0,2,2,Q1,Low AQ
309,ango96,ango96,female,26,FALSE,social,0.9082,62,3,3,2,3,0,2,2,Q1,Low AQ
310,ango96,ango96,female,26,TRUE,social,0.8345,63,3,3,2,3,0,2,2,Q1,Low AQ
311,ango96,ango96,female,26,TRUE,social,0.7425,64,3,3,2,3,0,2,2,Q1,Low AQ
312,ango96,ango96,female,26,TRUE,social,0.7751,10,1,2,1,3,0,2,2,Q1,Low AQ
313,ango96,ango96,female,26,TRUE,social,1.0687,11,1,2,1,3,0,2,2,Q1,Low AQ
314,ango96,ango96,female,26,FALSE,social,1.0106,12,1,2,1,3,0,2,2,Q1,Low AQ
315,ango96,ango96,female,26,TRUE,social,0.8371,68,3,4,2,3,0,2,2,Q1,Low AQ
316,ango96,ango96,female,26,TRUE,social,1.4837,69,3,5,2,3,0,2,2,Q1,Low AQ
317,ango96,ango96,female,26,TRUE,social,0.7484,70,3,5,2,3,0,2,2,Q1,Low AQ
318,ango96,ango96,female,26,TRUE,social,1.3965,71,3,5,2,3,0,2,2,Q1,Low AQ
319,ango96,ango96,female,26,FALSE,nonsocial,1.8589,29,2,1,1,3,0,2,2,Q1,Low AQ
320,ango96,ango96,female,26,FALSE,nonsocial,1.2246,30,2,1,1,3,0,2,2,Q1,Low AQ
321,ango96,ango96,female,26,FALSE,nonsocial,0.6631,31,2,1,1,3,0,2,2,Q1,Low AQ
322,ango96,ango96,female,26,FALSE,nonsocial,0.7712,32,2,1,1,3,0,2,2,Q1,Low AQ
323,ango96,ango96,female,26,FALSE,nonsocial,1.1975,33,2,2,1,3,0,2,2,Q1,Low AQ
324,ango96,ango96,female,26,TRUE,nonsocial,2.4745,34,2,2,1,3,0,2,2,Q1,Low AQ
325,ango96,ango96,female,26,TRUE,social,1.126,65,3,4,2,3,0,2,2,Q1,Low AQ
326,ango96,ango96,female,26,TRUE,social,0.7322,66,3,4,2,3,0,2,2,Q1,Low AQ
327,ango96,ango96,female,26,TRUE,social,0.9692,67,3,4,2,3,0,2,2,Q1,Low AQ
328,ango96,ango96,female,26,TRUE,nonsocial,1.8357,80,4,1,2,3,0,2,2,Q1,Low AQ
329,ango96,ango96,female,26,TRUE,nonsocial,1.46,81,4,2,2,3,0,2,2,Q1,Low AQ
330,ango96,ango96,female,26,FALSE,nonsocial,1.384,42,2,4,1,3,0,2,2,Q1,Low AQ
331,ango96,ango96,female,26,FALSE,nonsocial,1.4123000000000001,43,2,4,1,3,0,2,2,Q1,Low AQ
332,ango96,ango96,female,26,TRUE,nonsocial,2.2649,44,2,4,1,3,0,2,2,Q1,Low AQ
333,ango96,ango96,female,26,TRUE,nonsocial,1.6357,45,2,5,1,3,0,2,2,Q1,Low AQ
334,ango96,ango96,female,26,FALSE,nonsocial,1.3543,46,2,5,1,3,0,2,2,Q1,Low AQ
335,ango96,ango96,female,26,FALSE,nonsocial,0.969,47,2,5,1,3,0,2,2,Q1,Low AQ
336,ango96,ango96,female,26,TRUE,nonsocial,1.21,48,2,5,1,3,0,2,2,Q1,Low AQ
337,ango96,ango96,female,26,TRUE,social,1.5772,49,3,0,2,3,0,2,2,Q1,Low AQ
338,ango96,ango96,female,26,TRUE,social,1.3132,50,3,0,2,3,0,2,2,Q1,Low AQ
339,ango96,ango96,female,26,FALSE,nonsocial,1.4124,89,4,4,2,3,0,2,2,Q1,Low AQ
340,ango96,ango96,female,26,FALSE,nonsocial,2.0207,90,4,4,2,3,0,2,2,Q1,Low AQ
341,ango96,ango96,female,26,TRUE,nonsocial,1.085,91,4,4,2,3,0,2,2,Q1,Low AQ
342,ango96,ango96,female,26,FALSE,social,1.2858,13,1,3,1,3,0,2,2,Q1,Low AQ
343,ango96,ango96,female,26,TRUE,social,0.8478,56,3,1,2,3,0,2,2,Q1,Low AQ
344,ango96,ango96,female,26,TRUE,social,0.9152,14,1,3,1,3,0,2,2,Q1,Low AQ
345,ango96,ango96,female,26,FALSE,social,1.2002,15,1,3,1,3,0,2,2,Q1,Low AQ
346,ango96,ango96,female,26,TRUE,social,1.5447,16,1,3,1,3,0,2,2,Q1,Low AQ
347,ango96,ango96,female,26,TRUE,social,0.9802,17,1,4,1,3,0,2,2,Q1,Low AQ
348,ango96,ango96,female,26,TRUE,social,0.6155,18,1,4,1,3,0,2,2,Q1,Low AQ
349,ango96,ango96,female,26,FALSE,social,1.206,19,1,4,1,3,0,2,2,Q1,Low AQ
350,ango96,ango96,female,26,TRUE,social,0.9411,20,1,4,1,3,0,2,2,Q1,Low AQ
351,ango96,ango96,female,26,FALSE,social,0.8319,21,1,5,1,3,0,2,2,Q1,Low AQ
352,ango96,ango96,female,26,TRUE,social,0.7152,22,1,5,1,3,0,2,2,Q1,Low AQ
353,ango96,ango96,female,26,TRUE,social,0.4086,23,1,5,1,3,0,2,2,Q1,Low AQ
354,ango96,ango96,female,26,TRUE,social,0.949,24,1,5,1,3,0,2,2,Q1,Low AQ
355,ango96,ango96,female,26,FALSE,nonsocial,1.1705,25,2,0,1,3,0,2,2,Q1,Low AQ
356,ango96,ango96,female,26,TRUE,nonsocial,0.6567,26,2,0,1,3,0,2,2,Q1,Low AQ
357,ango96,ango96,female,26,FALSE,nonsocial,1.008,27,2,0,1,3,0,2,2,Q1,Low AQ
358,ango96,ango96,female,26,TRUE,nonsocial,0.9788,28,2,0,1,3,0,2,2,Q1,Low AQ
359,ango96,ango96,female,26,FALSE,nonsocial,2.7586,94,4,5,2,3,0,2,2,Q1,Low AQ
360,ango96,ango96,female,26,FALSE,nonsocial,1.5306,82,4,2,2,3,0,2,2,Q1,Low AQ
361,ango96,ango96,female,26,FALSE,nonsocial,1.8348,83,4,2,2,3,0,2,2,Q1,Low AQ
362,ango96,ango96,female,26,TRUE,nonsocial,1.4475,84,4,2,2,3,0,2,2,Q1,Low AQ
363,ango96,ango96,female,26,FALSE,nonsocial,0.9817,85,4,3,2,3,0,2,2,Q1,Low AQ
364,ango96,ango96,female,26,TRUE,nonsocial,0.7203,86,4,3,2,3,0,2,2,Q1,Low AQ
365,ango96,ango96,female,26,TRUE,nonsocial,0.9695,35,2,2,1,3,0,2,2,Q1,Low AQ
366,ango96,ango96,female,26,TRUE,nonsocial,1.0668,78,4,1,2,3,0,2,2,Q1,Low AQ
367,ango96,ango96,female,26,TRUE,nonsocial,1.8985,79,4,1,2,3,0,2,2,Q1,Low AQ
368,ango96,ango96,female,26,FALSE,nonsocial,1.2915,38,2,3,1,3,0,2,2,Q1,Low AQ
369,ango96,ango96,female,26,FALSE,nonsocial,1.1714,39,2,3,1,3,0,2,2,Q1,Low AQ
370,ango96,ango96,female,26,TRUE,nonsocial,0.8459,40,2,3,1,3,0,2,2,Q1,Low AQ
371,ango96,ango96,female,26,FALSE,nonsocial,0.8266,41,2,4,1,3,0,2,2,Q1,Low AQ
372,ango96,ango96,female,26,TRUE,nonsocial,0.6086,93,4,5,2,3,0,2,2,Q1,Low AQ
373,ango96,ango96,female,26,FALSE,nonsocial,1.8589,95,4,5,2,3,0,2,2,Q1,Low AQ
374,ango96,ango96,female,26,FALSE,nonsocial,2.1106,96,4,5,2,3,0,2,2,Q1,Low AQ
375,ango96,ango96,female,26,FALSE,nonsocial,1.3432,88,4,3,2,3,0,2,2,Q1,Low AQ
376,ango96,ango96,female,26,TRUE,social,0.8422,51,3,0,2,3,0,2,2,Q1,Low AQ
377,ango96,ango96,female,26,TRUE,social,0.5176,52,3,0,2,3,0,2,2,Q1,Low AQ
378,ango96,ango96,female,26,FALSE,nonsocial,1.5885,87,4,3,2,3,0,2,2,Q1,Low AQ
379,ango96,ango96,female,26,FALSE,social,1.3375,54,3,1,2,3,0,2,2,Q1,Low AQ
380,ango96,ango96,female,26,TRUE,social,0.8745,55,3,1,2,3,0,2,2,Q1,Low AQ
381,ango96,ango96,female,26,FALSE,nonsocial,0.5402,36,2,2,1,3,0,2,2,Q1,Low AQ
382,ango96,ango96,female,26,TRUE,social,1.4291,53,3,1,2,3,0,2,2,Q1,Low AQ
383,ango96,ango96,female,26,TRUE,nonsocial,2.8933,92,4,4,2,3,0,2,2,Q1,Low AQ
384,ango96,ango96,female,26,FALSE,nonsocial,1.9662,37,2,3,1,3,0,2,2,Q1,Low AQ
385,anpe97,anpe97,female,25,TRUE,nonsocial,0.9498,16,1,3,1,15,7,2,9,Q3,High AQ
386,anpe97,anpe97,female,25,TRUE,nonsocial,1.0779,17,1,4,1,15,7,2,9,Q3,High AQ
387,anpe97,anpe97,female,25,TRUE,nonsocial,0.7764,15,1,3,1,15,7,2,9,Q3,High AQ
388,anpe97,anpe97,female,25,TRUE,social,0.9038,86,4,3,2,15,7,2,9,Q3,High AQ
389,anpe97,anpe97,female,25,TRUE,nonsocial,0.8228,18,1,4,1,15,7,2,9,Q3,High AQ
390,anpe97,anpe97,female,25,TRUE,nonsocial,1.0384,14,1,3,1,15,7,2,9,Q3,High AQ
391,anpe97,anpe97,female,25,TRUE,social,1.6745,89,4,4,2,15,7,2,9,Q3,High AQ
392,anpe97,anpe97,female,25,TRUE,social,0.9906,90,4,4,2,15,7,2,9,Q3,High AQ
393,anpe97,anpe97,female,25,TRUE,nonsocial,1.5146,13,1,3,1,15,7,2,9,Q3,High AQ
394,anpe97,anpe97,female,25,TRUE,social,1.5031,88,4,3,2,15,7,2,9,Q3,High AQ
395,anpe97,anpe97,female,25,TRUE,social,0.8844,93,4,5,2,15,7,2,9,Q3,High AQ
396,anpe97,anpe97,female,25,TRUE,social,1.1222,94,4,5,2,15,7,2,9,Q3,High AQ
397,anpe97,anpe97,female,25,TRUE,social,1.0711,87,4,3,2,15,7,2,9,Q3,High AQ
398,anpe97,anpe97,female,25,TRUE,social,1.2379,27,2,0,1,15,7,2,9,Q3,High AQ
399,anpe97,anpe97,female,25,TRUE,nonsocial,3.2415,12,1,2,1,15,7,2,9,Q3,High AQ
400,anpe97,anpe97,female,25,FALSE,nonsocial,0.7871,54,3,1,2,15,7,2,9,Q3,High AQ
401,anpe97,anpe97,female,25,TRUE,nonsocial,1.5955,55,3,1,2,15,7,2,9,Q3,High AQ
402,anpe97,anpe97,female,25,FALSE,nonsocial,0.5232,56,3,1,2,15,7,2,9,Q3,High AQ
403,anpe97,anpe97,female,25,TRUE,nonsocial,1.9524,57,3,2,2,15,7,2,9,Q3,High AQ
404,anpe97,anpe97,female,25,FALSE,nonsocial,2.0907,58,3,2,2,15,7,2,9,Q3,High AQ
405,anpe97,anpe97,female,25,FALSE,nonsocial,3.8623,59,3,2,2,15,7,2,9,Q3,High AQ
406,anpe97,anpe97,female,25,TRUE,social,1.076,91,4,4,2,15,7,2,9,Q3,High AQ
407,anpe97,anpe97,female,25,TRUE,social,1.3576,92,4,4,2,15,7,2,9,Q3,High AQ
408,anpe97,anpe97,female,25,TRUE,nonsocial,1.0713,23,1,5,1,15,7,2,9,Q3,High AQ
409,anpe97,anpe97,female,25,FALSE,nonsocial,0.8678,24,1,5,1,15,7,2,9,Q3,High AQ
410,anpe97,anpe97,female,25,TRUE,social,2.1526,95,4,5,2,15,7,2,9,Q3,High AQ
411,anpe97,anpe97,female,25,TRUE,social,1.1536,96,4,5,2,15,7,2,9,Q3,High AQ
412,anpe97,anpe97,female,25,TRUE,nonsocial,0.6757,67,3,4,2,15,7,2,9,Q3,High AQ
413,anpe97,anpe97,female,25,FALSE,social,1.0966,28,2,0,1,15,7,2,9,Q3,High AQ
414,anpe97,anpe97,female,25,TRUE,social,1.048,29,2,1,1,15,7,2,9,Q3,High AQ
415,anpe97,anpe97,female,25,TRUE,social,3.6392,30,2,1,1,15,7,2,9,Q3,High AQ
416,anpe97,anpe97,female,25,TRUE,social,0.8752,31,2,1,1,15,7,2,9,Q3,High AQ
417,anpe97,anpe97,female,25,FALSE,social,1.5932,32,2,1,1,15,7,2,9,Q3,High AQ
418,anpe97,anpe97,female,25,FALSE,social,1.4844,33,2,2,1,15,7,2,9,Q3,High AQ
419,anpe97,anpe97,female,25,TRUE,social,3.1939,34,2,2,1,15,7,2,9,Q3,High AQ
420,anpe97,anpe97,female,25,FALSE,social,2.4252,35,2,2,1,15,7,2,9,Q3,High AQ
421,anpe97,anpe97,female,25,TRUE,social,1.1124,36,2,2,1,15,7,2,9,Q3,High AQ
422,anpe97,anpe97,female,25,FALSE,social,2.8885,37,2,3,1,15,7,2,9,Q3,High AQ
423,anpe97,anpe97,female,25,FALSE,social,1.3401,25,2,0,1,15,7,2,9,Q3,High AQ
424,anpe97,anpe97,female,25,FALSE,social,1.1864,26,2,0,1,15,7,2,9,Q3,High AQ
425,anpe97,anpe97,female,25,FALSE,social,1.7617,83,4,2,2,15,7,2,9,Q3,High AQ
426,anpe97,anpe97,female,25,TRUE,social,1.3368,84,4,2,2,15,7,2,9,Q3,High AQ
427,anpe97,anpe97,female,25,TRUE,social,1.0946,85,4,3,2,15,7,2,9,Q3,High AQ
428,anpe97,anpe97,female,25,FALSE,nonsocial,0.7404,1,1,0,1,15,7,2,9,Q3,High AQ
429,anpe97,anpe97,female,25,TRUE,nonsocial,1.1862,2,1,0,1,15,7,2,9,Q3,High AQ
430,anpe97,anpe97,female,25,TRUE,nonsocial,1.4114,3,1,0,1,15,7,2,9,Q3,High AQ
431,anpe97,anpe97,female,25,TRUE,nonsocial,1.2237,4,1,0,1,15,7,2,9,Q3,High AQ
432,anpe97,anpe97,female,25,FALSE,nonsocial,2.1466,5,1,1,1,15,7,2,9,Q3,High AQ
433,anpe97,anpe97,female,25,TRUE,nonsocial,1.6102,6,1,1,1,15,7,2,9,Q3,High AQ
434,anpe97,anpe97,female,25,TRUE,nonsocial,1.0956,7,1,1,1,15,7,2,9,Q3,High AQ
435,anpe97,anpe97,female,25,TRUE,nonsocial,2.9147,8,1,1,1,15,7,2,9,Q3,High AQ
436,anpe97,anpe97,female,25,TRUE,nonsocial,2.3257,9,1,2,1,15,7,2,9,Q3,High AQ
437,anpe97,anpe97,female,25,TRUE,nonsocial,0.8841,10,1,2,1,15,7,2,9,Q3,High AQ
438,anpe97,anpe97,female,25,TRUE,nonsocial,0.9244,11,1,2,1,15,7,2,9,Q3,High AQ
439,anpe97,anpe97,female,25,TRUE,nonsocial,3.3832,53,3,1,2,15,7,2,9,Q3,High AQ
440,anpe97,anpe97,female,25,TRUE,nonsocial,0.54990000000000006,68,3,4,2,15,7,2,9,Q3,High AQ
441,anpe97,anpe97,female,25,TRUE,nonsocial,2.4014,69,3,5,2,15,7,2,9,Q3,High AQ
442,anpe97,anpe97,female,25,TRUE,nonsocial,1.1912,70,3,5,2,15,7,2,9,Q3,High AQ
443,anpe97,anpe97,female,25,TRUE,nonsocial,1.5049,71,3,5,2,15,7,2,9,Q3,High AQ
444,anpe97,anpe97,female,25,FALSE,nonsocial,1.7067,72,3,5,2,15,7,2,9,Q3,High AQ
445,anpe97,anpe97,female,25,TRUE,social,0.9929,73,4,0,2,15,7,2,9,Q3,High AQ
446,anpe97,anpe97,female,25,FALSE,nonsocial,1.1271,60,3,2,2,15,7,2,9,Q3,High AQ
447,anpe97,anpe97,female,25,TRUE,nonsocial,0.9425,19,1,4,1,15,7,2,9,Q3,High AQ
448,anpe97,anpe97,female,25,TRUE,nonsocial,1.0293,20,1,4,1,15,7,2,9,Q3,High AQ
449,anpe97,anpe97,female,25,TRUE,nonsocial,1.1581,21,1,5,1,15,7,2,9,Q3,High AQ
450,anpe97,anpe97,female,25,TRUE,nonsocial,0.918,22,1,5,1,15,7,2,9,Q3,High AQ
451,anpe97,anpe97,female,25,TRUE,nonsocial,2.4581,65,3,4,2,15,7,2,9,Q3,High AQ
452,anpe97,anpe97,female,25,FALSE,nonsocial,1.1987,66,3,4,2,15,7,2,9,Q3,High AQ
453,anpe97,anpe97,female,25,TRUE,social,1.6886,81,4,2,2,15,7,2,9,Q3,High AQ
454,anpe97,anpe97,female,25,FALSE,social,1.6545,41,2,4,1,15,7,2,9,Q3,High AQ
455,anpe97,anpe97,female,25,TRUE,social,0.7997,42,2,4,1,15,7,2,9,Q3,High AQ
456,anpe97,anpe97,female,25,TRUE,social,0.8964,43,2,4,1,15,7,2,9,Q3,High AQ
457,anpe97,anpe97,female,25,TRUE,social,1.2922,44,2,4,1,15,7,2,9,Q3,High AQ
458,anpe97,anpe97,female,25,FALSE,social,2.8508,45,2,5,1,15,7,2,9,Q3,High AQ
459,anpe97,anpe97,female,25,TRUE,social,1.7411,74,4,0,2,15,7,2,9,Q3,High AQ
460,anpe97,anpe97,female,25,TRUE,social,0.6524,47,2,5,1,15,7,2,9,Q3,High AQ
461,anpe97,anpe97,female,25,FALSE,social,1.0545,75,4,0,2,15,7,2,9,Q3,High AQ
462,anpe97,anpe97,female,25,FALSE,social,1.413,76,4,0,2,15,7,2,9,Q3,High AQ
463,anpe97,anpe97,female,25,TRUE,social,1.0897,38,2,3,1,15,7,2,9,Q3,High AQ
464,anpe97,anpe97,female,25,FALSE,social,1.6267,82,4,2,2,15,7,2,9,Q3,High AQ
465,anpe97,anpe97,female,25,TRUE,social,0.7362,80,4,1,2,15,7,2,9,Q3,High AQ
466,anpe97,anpe97,female,25,TRUE,social,0.7686,39,2,3,1,15,7,2,9,Q3,High AQ
467,anpe97,anpe97,female,25,TRUE,social,1.5111,40,2,3,1,15,7,2,9,Q3,High AQ
468,anpe97,anpe97,female,25,TRUE,social,1.3195,46,2,5,1,15,7,2,9,Q3,High AQ
469,anpe97,anpe97,female,25,TRUE,nonsocial,0.6081,51,3,0,2,15,7,2,9,Q3,High AQ
470,anpe97,anpe97,female,25,TRUE,social,1.4093,48,2,5,1,15,7,2,9,Q3,High AQ
471,anpe97,anpe97,female,25,TRUE,nonsocial,2.3932,49,3,0,2,15,7,2,9,Q3,High AQ
472,anpe97,anpe97,female,25,TRUE,nonsocial,0.9829,50,3,0,2,15,7,2,9,Q3,High AQ
473,anpe97,anpe97,female,25,FALSE,nonsocial,1.2917,63,3,3,2,15,7,2,9,Q3,High AQ
474,anpe97,anpe97,female,25,TRUE,nonsocial,2.5165,52,3,0,2,15,7,2,9,Q3,High AQ
475,anpe97,anpe97,female,25,TRUE,nonsocial,2.8999,61,3,3,2,15,7,2,9,Q3,High AQ
476,anpe97,anpe97,female,25,TRUE,social,0.7795,79,4,1,2,15,7,2,9,Q3,High AQ
477,anpe97,anpe97,female,25,TRUE,nonsocial,0.9436,64,3,3,2,15,7,2,9,Q3,High AQ
478,anpe97,anpe97,female,25,TRUE,social,1.7432,78,4,1,2,15,7,2,9,Q3,High AQ
479,anpe97,anpe97,female,25,FALSE,nonsocial,2.3298,62,3,3,2,15,7,2,9,Q3,High AQ
480,anpe97,anpe97,female,25,TRUE,social,1.0606,77,4,1,2,15,7,2,9,Q3,High AQ
481,beka93,beka93,female,29,FALSE,social,2.4049,5,1,1,1,9,1,3,4,median,Low AQ
482,beka93,beka93,female,29,TRUE,social,0.9534,20,1,4,1,9,1,3,4,median,Low AQ
483,beka93,beka93,female,29,TRUE,social,1.9733,6,1,1,1,9,1,3,4,median,Low AQ
484,beka93,beka93,female,29,FALSE,social,1.5955,4,1,0,1,9,1,3,4,median,Low AQ
485,beka93,beka93,female,29,FALSE,nonsocial,3.435,39,2,3,1,9,1,3,4,median,Low AQ
486,beka93,beka93,female,29,FALSE,nonsocial,1.3344,40,2,3,1,9,1,3,4,median,Low AQ
487,beka93,beka93,female,29,TRUE,social,0.8139,7,1,1,1,9,1,3,4,median,Low AQ
488,beka93,beka93,female,29,TRUE,nonsocial,1.6386,42,2,4,1,9,1,3,4,median,Low AQ
489,beka93,beka93,female,29,TRUE,nonsocial,1.0219,43,2,4,1,9,1,3,4,median,Low AQ
490,beka93,beka93,female,29,FALSE,nonsocial,1.1129,44,2,4,1,9,1,3,4,median,Low AQ
491,beka93,beka93,female,29,TRUE,social,2.5717,2,1,0,1,9,1,3,4,median,Low AQ
492,beka93,beka93,female,29,FALSE,social,1.9926,1,1,0,1,9,1,3,4,median,Low AQ
493,beka93,beka93,female,29,FALSE,social,1.2617,3,1,0,1,9,1,3,4,median,Low AQ
494,beka93,beka93,female,29,FALSE,social,2.2378,52,3,0,2,9,1,3,4,median,Low AQ
495,beka93,beka93,female,29,FALSE,nonsocial,5.0059,41,2,4,1,9,1,3,4,median,Low AQ
496,beka93,beka93,female,29,TRUE,social,1.6464,54,3,1,2,9,1,3,4,median,Low AQ
497,beka93,beka93,female,29,TRUE,social,1.0369,55,3,1,2,9,1,3,4,median,Low AQ
498,beka93,beka93,female,29,TRUE,social,0.5596,56,3,1,2,9,1,3,4,median,Low AQ
499,beka93,beka93,female,29,TRUE,social,2.827,53,3,1,2,9,1,3,4,median,Low AQ
500,beka93,beka93,female,29,TRUE,social,2.382,58,3,2,2,9,1,3,4,median,Low AQ
501,beka93,beka93,female,29,TRUE,social,1.5322,21,1,5,1,9,1,3,4,median,Low AQ
502,beka93,beka93,female,29,TRUE,social,0.9706,22,1,5,1,9,1,3,4,median,Low AQ
503,beka93,beka93,female,29,TRUE,social,1.6168,57,3,2,2,9,1,3,4,median,Low AQ
504,beka93,beka93,female,29,FALSE,social,0.9653,10,1,2,1,9,1,3,4,median,Low AQ
505,beka93,beka93,female,29,TRUE,social,1.0919,11,1,2,1,9,1,3,4,median,Low AQ
506,beka93,beka93,female,29,TRUE,nonsocial,4.7322,38,2,3,1,9,1,3,4,median,Low AQ
507,beka93,beka93,female,29,TRUE,social,1.6837,24,1,5,1,9,1,3,4,median,Low AQ
508,beka93,beka93,female,29,TRUE,nonsocial,3.1153,25,2,0,1,9,1,3,4,median,Low AQ
509,beka93,beka93,female,29,TRUE,nonsocial,1.3564,26,2,0,1,9,1,3,4,median,Low AQ
510,beka93,beka93,female,29,TRUE,nonsocial,1.0513,27,2,0,1,9,1,3,4,median,Low AQ
511,beka93,beka93,female,29,FALSE,nonsocial,1.5346,28,2,0,1,9,1,3,4,median,Low AQ
512,beka93,beka93,female,29,FALSE,nonsocial,1.077,29,2,1,1,9,1,3,4,median,Low AQ
513,beka93,beka93,female,29,TRUE,nonsocial,1.0297,30,2,1,1,9,1,3,4,median,Low AQ
514,beka93,beka93,female,29,FALSE,nonsocial,1.9748000000000001,31,2,1,1,9,1,3,4,median,Low AQ
515,beka93,beka93,female,29,TRUE,nonsocial,1.663,32,2,1,1,9,1,3,4,median,Low AQ
516,beka93,beka93,female,29,FALSE,nonsocial,1.5723,33,2,2,1,9,1,3,4,median,Low AQ
517,beka93,beka93,female,29,TRUE,nonsocial,2.0311,34,2,2,1,9,1,3,4,median,Low AQ
518,beka93,beka93,female,29,TRUE,nonsocial,1.4439,35,2,2,1,9,1,3,4,median,Low AQ
519,beka93,beka93,female,29,FALSE,social,1.7921,51,3,0,2,9,1,3,4,median,Low AQ
520,beka93,beka93,female,29,TRUE,nonsocial,4.9308,37,2,3,1,9,1,3,4,median,Low AQ
521,beka93,beka93,female,29,TRUE,nonsocial,1.6194,77,4,1,2,9,1,3,4,median,Low AQ
522,beka93,beka93,female,29,FALSE,nonsocial,1.9317,78,4,1,2,9,1,3,4,median,Low AQ
523,beka93,beka93,female,29,TRUE,nonsocial,0.5949,79,4,1,2,9,1,3,4,median,Low AQ
524,beka93,beka93,female,29,TRUE,nonsocial,0.5967,80,4,1,2,9,1,3,4,median,Low AQ
525,beka93,beka93,female,29,TRUE,nonsocial,1.9159,81,4,2,2,9,1,3,4,median,Low AQ
526,beka93,beka93,female,29,TRUE,nonsocial,1.1789,82,4,2,2,9,1,3,4,median,Low AQ
527,beka93,beka93,female,29,TRUE,nonsocial,1.1082,83,4,2,2,9,1,3,4,median,Low AQ
528,beka93,beka93,female,29,FALSE,nonsocial,1.2423,45,2,5,1,9,1,3,4,median,Low AQ
529,beka93,beka93,female,29,TRUE,social,1.2306,8,1,1,1,9,1,3,4,median,Low AQ
530,beka93,beka93,female,29,TRUE,social,2.9792,9,1,2,1,9,1,3,4,median,Low AQ
531,beka93,beka93,female,29,FALSE,social,2.7761,49,3,0,2,9,1,3,4,median,Low AQ
532,beka93,beka93,female,29,TRUE,nonsocial,1.4721,36,2,2,1,9,1,3,4,median,Low AQ
533,beka93,beka93,female,29,TRUE,nonsocial,1.3287,90,4,4,2,9,1,3,4,median,Low AQ
534,beka93,beka93,female,29,TRUE,nonsocial,1.2225,91,4,4,2,9,1,3,4,median,Low AQ
535,beka93,beka93,female,29,TRUE,nonsocial,0.8187,92,4,4,2,9,1,3,4,median,Low AQ
536,beka93,beka93,female,29,TRUE,nonsocial,1.3968,93,4,5,2,9,1,3,4,median,Low AQ
537,beka93,beka93,female,29,TRUE,nonsocial,0.6133,94,4,5,2,9,1,3,4,median,Low AQ
538,beka93,beka93,female,29,TRUE,nonsocial,1.2403,95,4,5,2,9,1,3,4,median,Low AQ
539,beka93,beka93,female,29,TRUE,nonsocial,1.0494,96,4,5,2,9,1,3,4,median,Low AQ
540,beka93,beka93,female,29,TRUE,social,1.0534,18,1,4,1,9,1,3,4,median,Low AQ
541,beka93,beka93,female,29,TRUE,social,0.9374,59,3,2,2,9,1,3,4,median,Low AQ
542,beka93,beka93,female,29,TRUE,social,0.8352,60,3,2,2,9,1,3,4,median,Low AQ
543,beka93,beka93,female,29,TRUE,social,1.261,61,3,3,2,9,1,3,4,median,Low AQ
544,beka93,beka93,female,29,TRUE,social,1.8056,62,3,3,2,9,1,3,4,median,Low AQ
545,beka93,beka93,female,29,TRUE,social,3.5153,50,3,0,2,9,1,3,4,median,Low AQ
546,beka93,beka93,female,29,TRUE,social,0.5894,23,1,5,1,9,1,3,4,median,Low AQ
547,beka93,beka93,female,29,TRUE,social,0.5432,63,3,3,2,9,1,3,4,median,Low AQ
548,beka93,beka93,female,29,TRUE,social,0.6167,64,3,3,2,9,1,3,4,median,Low AQ
549,beka93,beka93,female,29,TRUE,social,2.0818,65,3,4,2,9,1,3,4,median,Low AQ
550,beka93,beka93,female,29,TRUE,social,1.1935,66,3,4,2,9,1,3,4,median,Low AQ
551,beka93,beka93,female,29,TRUE,social,0.9477,67,3,4,2,9,1,3,4,median,Low AQ
552,beka93,beka93,female,29,TRUE,social,0.6646,68,3,4,2,9,1,3,4,median,Low AQ
553,beka93,beka93,female,29,TRUE,social,1.0934,69,3,5,2,9,1,3,4,median,Low AQ
554,beka93,beka93,female,29,TRUE,social,3.6306,70,3,5,2,9,1,3,4,median,Low AQ
555,beka93,beka93,female,29,TRUE,social,0.8724,71,3,5,2,9,1,3,4,median,Low AQ
556,beka93,beka93,female,29,TRUE,social,0.7727,72,3,5,2,9,1,3,4,median,Low AQ
557,beka93,beka93,female,29,FALSE,nonsocial,2.0145,73,4,0,2,9,1,3,4,median,Low AQ
558,beka93,beka93,female,29,TRUE,nonsocial,1.1124,74,4,0,2,9,1,3,4,median,Low AQ
559,beka93,beka93,female,29,FALSE,nonsocial,4.4169,75,4,0,2,9,1,3,4,median,Low AQ
560,beka93,beka93,female,29,TRUE,nonsocial,1.3681,76,4,0,2,9,1,3,4,median,Low AQ
561,beka93,beka93,female,29,FALSE,social,0.6855,12,1,2,1,9,1,3,4,median,Low AQ
562,beka93,beka93,female,29,FALSE,social,2.3679,13,1,3,1,9,1,3,4,median,Low AQ
563,beka93,beka93,female,29,TRUE,social,1.5381,14,1,3,1,9,1,3,4,median,Low AQ
564,beka93,beka93,female,29,TRUE,social,0.8877,15,1,3,1,9,1,3,4,median,Low AQ
565,beka93,beka93,female,29,TRUE,social,0.8626,16,1,3,1,9,1,3,4,median,Low AQ
566,beka93,beka93,female,29,TRUE,social,0.9629,17,1,4,1,9,1,3,4,median,Low AQ
567,beka93,beka93,female,29,TRUE,nonsocial,1.472,48,2,5,1,9,1,3,4,median,Low AQ
568,beka93,beka93,female,29,TRUE,nonsocial,2.0586,84,4,2,2,9,1,3,4,median,Low AQ
569,beka93,beka93,female,29,TRUE,nonsocial,1.332,46,2,5,1,9,1,3,4,median,Low AQ
570,beka93,beka93,female,29,TRUE,nonsocial,0.9694,47,2,5,1,9,1,3,4,median,Low AQ
571,beka93,beka93,female,29,TRUE,nonsocial,1.7558,85,4,3,2,9,1,3,4,median,Low AQ
572,beka93,beka93,female,29,TRUE,nonsocial,1.0638,88,4,3,2,9,1,3,4,median,Low AQ
573,beka93,beka93,female,29,TRUE,nonsocial,1.1863,89,4,4,2,9,1,3,4,median,Low AQ
574,beka93,beka93,female,29,TRUE,nonsocial,0.6962,86,4,3,2,9,1,3,4,median,Low AQ
575,beka93,beka93,female,29,TRUE,social,1.5129,19,1,4,1,9,1,3,4,median,Low AQ
576,beka93,beka93,female,29,TRUE,nonsocial,1.225,87,4,3,2,9,1,3,4,median,Low AQ
577,beka95,beka95,male,26,FALSE,social,1.1762,24,1,5,1,12,3,2,5,Q3,High AQ
578,beka95,beka95,male,26,TRUE,nonsocial,0.8271,30,2,1,1,12,3,2,5,Q3,High AQ
579,beka95,beka95,male,26,TRUE,nonsocial,1.7362,28,2,0,1,12,3,2,5,Q3,High AQ
580,beka95,beka95,male,26,TRUE,nonsocial,1.4923,25,2,0,1,12,3,2,5,Q3,High AQ
581,beka95,beka95,male,26,TRUE,nonsocial,1.587,26,2,0,1,12,3,2,5,Q3,High AQ
582,beka95,beka95,male,26,TRUE,nonsocial,0.97,44,2,4,1,12,3,2,5,Q3,High AQ
583,beka95,beka95,male,26,TRUE,nonsocial,0.916,29,2,1,1,12,3,2,5,Q3,High AQ
584,beka95,beka95,male,26,TRUE,social,0.7158,1,1,0,1,12,3,2,5,Q3,High AQ
585,beka95,beka95,male,26,FALSE,nonsocial,1.3257,27,2,0,1,12,3,2,5,Q3,High AQ
586,beka95,beka95,male,26,TRUE,social,1.7373,8,1,1,1,12,3,2,5,Q3,High AQ
587,beka95,beka95,male,26,TRUE,social,1.0898,10,1,2,1,12,3,2,5,Q3,High AQ
588,beka95,beka95,male,26,FALSE,social,1.6024,11,1,2,1,12,3,2,5,Q3,High AQ
589,beka95,beka95,male,26,FALSE,social,1.764,12,1,2,1,12,3,2,5,Q3,High AQ
590,beka95,beka95,male,26,FALSE,social,1.6514,13,1,3,1,12,3,2,5,Q3,High AQ
591,beka95,beka95,male,26,FALSE,social,2.2325,14,1,3,1,12,3,2,5,Q3,High AQ
592,beka95,beka95,male,26,FALSE,social,1.8511,15,1,3,1,12,3,2,5,Q3,High AQ
593,beka95,beka95,male,26,FALSE,social,1.1168,16,1,3,1,12,3,2,5,Q3,High AQ
594,beka95,beka95,male,26,FALSE,social,1.1077,17,1,4,1,12,3,2,5,Q3,High AQ
595,beka95,beka95,male,26,FALSE,social,0.9953,18,1,4,1,12,3,2,5,Q3,High AQ
596,beka95,beka95,male,26,TRUE,nonsocial,1.3465,45,2,5,1,12,3,2,5,Q3,High AQ
597,beka95,beka95,male,26,TRUE,nonsocial,0.8446,46,2,5,1,12,3,2,5,Q3,High AQ
598,beka95,beka95,male,26,TRUE,nonsocial,1.167,47,2,5,1,12,3,2,5,Q3,High AQ
599,beka95,beka95,male,26,FALSE,social,1.4906,22,1,5,1,12,3,2,5,Q3,High AQ
600,beka95,beka95,male,26,FALSE,social,0.6563,23,1,5,1,12,3,2,5,Q3,High AQ
601,beka95,beka95,male,26,TRUE,social,0.7427,64,3,3,2,12,3,2,5,Q3,High AQ
602,beka95,beka95,male,26,TRUE,social,1.7845,65,3,4,2,12,3,2,5,Q3,High AQ
603,beka95,beka95,male,26,FALSE,social,1.0863,66,3,4,2,12,3,2,5,Q3,High AQ
604,beka95,beka95,male,26,FALSE,social,0.645,67,3,4,2,12,3,2,5,Q3,High AQ
605,beka95,beka95,male,26,FALSE,social,1.8208,68,3,4,2,12,3,2,5,Q3,High AQ
606,beka95,beka95,male,26,TRUE,social,3.5088,69,3,5,2,12,3,2,5,Q3,High AQ
607,beka95,beka95,male,26,FALSE,social,1.3427,70,3,5,2,12,3,2,5,Q3,High AQ
608,beka95,beka95,male,26,TRUE,nonsocial,0.8334,31,2,1,1,12,3,2,5,Q3,High AQ
609,beka95,beka95,male,26,FALSE,social,1.2642,19,1,4,1,12,3,2,5,Q3,High AQ
610,beka95,beka95,male,26,FALSE,social,0.7217,20,1,4,1,12,3,2,5,Q3,High AQ
611,beka95,beka95,male,26,FALSE,social,1.0126,21,1,5,1,12,3,2,5,Q3,High AQ
612,beka95,beka95,male,26,TRUE,nonsocial,0.5349,34,2,2,1,12,3,2,5,Q3,High AQ
613,beka95,beka95,male,26,TRUE,nonsocial,0.7603,35,2,2,1,12,3,2,5,Q3,High AQ
614,beka95,beka95,male,26,TRUE,nonsocial,1.2918,77,4,1,2,12,3,2,5,Q3,High AQ
615,beka95,beka95,male,26,TRUE,nonsocial,1.031,78,4,1,2,12,3,2,5,Q3,High AQ
616,beka95,beka95,male,26,TRUE,nonsocial,1.0581,79,4,1,2,12,3,2,5,Q3,High AQ
617,beka95,beka95,male,26,TRUE,nonsocial,1.2367,80,4,1,2,12,3,2,5,Q3,High AQ
618,beka95,beka95,male,26,TRUE,nonsocial,1.128,81,4,2,2,12,3,2,5,Q3,High AQ
619,beka95,beka95,male,26,TRUE,nonsocial,0.6203,82,4,2,2,12,3,2,5,Q3,High AQ
620,beka95,beka95,male,26,TRUE,nonsocial,0.7417,83,4,2,2,12,3,2,5,Q3,High AQ
621,beka95,beka95,male,26,TRUE,nonsocial,0.6495,84,4,2,2,12,3,2,5,Q3,High AQ
622,beka95,beka95,male,26,TRUE,nonsocial,1.3583,85,4,3,2,12,3,2,5,Q3,High AQ
623,beka95,beka95,male,26,TRUE,nonsocial,1.0932,86,4,3,2,12,3,2,5,Q3,High AQ
624,beka95,beka95,male,26,TRUE,nonsocial,0.7791,87,4,3,2,12,3,2,5,Q3,High AQ
625,beka95,beka95,male,26,TRUE,nonsocial,0.8645,88,4,3,2,12,3,2,5,Q3,High AQ
626,beka95,beka95,male,26,TRUE,nonsocial,0.7584,89,4,4,2,12,3,2,5,Q3,High AQ
627,beka95,beka95,male,26,FALSE,social,1.4684,9,1,2,1,12,3,2,5,Q3,High AQ
628,beka95,beka95,male,26,TRUE,social,1.5316,7,1,1,1,12,3,2,5,Q3,High AQ
629,beka95,beka95,male,26,FALSE,social,0.9493,50,3,0,2,12,3,2,5,Q3,High AQ
630,beka95,beka95,male,26,FALSE,social,1.3389,51,3,0,2,12,3,2,5,Q3,High AQ
631,beka95,beka95,male,26,TRUE,social,2.3389,52,3,0,2,12,3,2,5,Q3,High AQ
632,beka95,beka95,male,26,TRUE,social,2.3464,53,3,1,2,12,3,2,5,Q3,High AQ
633,beka95,beka95,male,26,TRUE,social,2.8358,54,3,1,2,12,3,2,5,Q3,High AQ
634,beka95,beka95,male,26,FALSE,social,2.7445,55,3,1,2,12,3,2,5,Q3,High AQ
635,beka95,beka95,male,26,FALSE,social,1.7659,56,3,1,2,12,3,2,5,Q3,High AQ
636,beka95,beka95,male,26,TRUE,social,1.8894,57,3,2,2,12,3,2,5,Q3,High AQ
637,beka95,beka95,male,26,FALSE,social,1.2092,58,3,2,2,12,3,2,5,Q3,High AQ
638,beka95,beka95,male,26,FALSE,social,1.2532,59,3,2,2,12,3,2,5,Q3,High AQ
639,beka95,beka95,male,26,TRUE,social,0.8256,60,3,2,2,12,3,2,5,Q3,High AQ
640,beka95,beka95,male,26,TRUE,social,1.482,61,3,3,2,12,3,2,5,Q3,High AQ
641,beka95,beka95,male,26,FALSE,social,0.7449,62,3,3,2,12,3,2,5,Q3,High AQ
642,beka95,beka95,male,26,TRUE,social,0.7891,63,3,3,2,12,3,2,5,Q3,High AQ
643,beka95,beka95,male,26,TRUE,nonsocial,1.2432,37,2,3,1,12,3,2,5,Q3,High AQ
644,beka95,beka95,male,26,TRUE,nonsocial,0.7554,38,2,3,1,12,3,2,5,Q3,High AQ
645,beka95,beka95,male,26,TRUE,nonsocial,0.6604,39,2,3,1,12,3,2,5,Q3,High AQ
646,beka95,beka95,male,26,TRUE,nonsocial,0.7154,40,2,3,1,12,3,2,5,Q3,High AQ
647,beka95,beka95,male,26,TRUE,nonsocial,1.4805,41,2,4,1,12,3,2,5,Q3,High AQ
648,beka95,beka95,male,26,TRUE,nonsocial,1.3315,42,2,4,1,12,3,2,5,Q3,High AQ
649,beka95,beka95,male,26,FALSE,social,0.6903,71,3,5,2,12,3,2,5,Q3,High AQ
650,beka95,beka95,male,26,TRUE,nonsocial,0.8637,32,2,1,1,12,3,2,5,Q3,High AQ
651,beka95,beka95,male,26,TRUE,nonsocial,0.5587,33,2,2,1,12,3,2,5,Q3,High AQ
652,beka95,beka95,male,26,FALSE,nonsocial,1.0699,75,4,0,2,12,3,2,5,Q3,High AQ
653,beka95,beka95,male,26,TRUE,nonsocial,1.2741,76,4,0,2,12,3,2,5,Q3,High AQ
654,beka95,beka95,male,26,FALSE,social,1.6925,6,1,1,1,12,3,2,5,Q3,High AQ
655,beka95,beka95,male,26,TRUE,nonsocial,0.3425,36,2,2,1,12,3,2,5,Q3,High AQ
656,beka95,beka95,male,26,TRUE,nonsocial,0.4211,91,4,4,2,12,3,2,5,Q3,High AQ
657,beka95,beka95,male,26,FALSE,nonsocial,1.5811,92,4,4,2,12,3,2,5,Q3,High AQ
658,beka95,beka95,male,26,FALSE,nonsocial,0.8122,93,4,5,2,12,3,2,5,Q3,High AQ
659,beka95,beka95,male,26,TRUE,nonsocial,0.8617,94,4,5,2,12,3,2,5,Q3,High AQ
660,beka95,beka95,male,26,TRUE,nonsocial,1.6159,95,4,5,2,12,3,2,5,Q3,High AQ
661,beka95,beka95,male,26,TRUE,nonsocial,1.3838,96,4,5,2,12,3,2,5,Q3,High AQ
662,beka95,beka95,male,26,TRUE,nonsocial,2.5931,43,2,4,1,12,3,2,5,Q3,High AQ
663,beka95,beka95,male,26,TRUE,social,0.6866,2,1,0,1,12,3,2,5,Q3,High AQ
664,beka95,beka95,male,26,FALSE,social,0.6811,3,1,0,1,12,3,2,5,Q3,High AQ
665,beka95,beka95,male,26,FALSE,social,0.8339,4,1,0,1,12,3,2,5,Q3,High AQ
666,beka95,beka95,male,26,TRUE,social,2.4781,5,1,1,1,12,3,2,5,Q3,High AQ
667,beka95,beka95,male,26,TRUE,nonsocial,1.5317,74,4,0,2,12,3,2,5,Q3,High AQ
668,beka95,beka95,male,26,TRUE,social,1.0913,49,3,0,2,12,3,2,5,Q3,High AQ
669,beka95,beka95,male,26,TRUE,nonsocial,0.8683,90,4,4,2,12,3,2,5,Q3,High AQ
670,beka95,beka95,male,26,FALSE,nonsocial,2.0618,73,4,0,2,12,3,2,5,Q3,High AQ
671,beka95,beka95,male,26,FALSE,social,0.7846,72,3,5,2,12,3,2,5,Q3,High AQ
672,beka95,beka95,male,26,TRUE,nonsocial,0.7543,48,2,5,1,12,3,2,5,Q3,High AQ
673,brte95,brte95,female,26,TRUE,social,0.7429,23,1,5,1,19,5,5,10,Q3,High AQ
674,brte95,brte95,female,26,FALSE,social,0.5242,56,3,1,2,19,5,5,10,Q3,High AQ
675,brte95,brte95,female,26,TRUE,social,0.5032,54,3,1,2,19,5,5,10,Q3,High AQ
676,brte95,brte95,female,26,TRUE,social,0.5139,55,3,1,2,19,5,5,10,Q3,High AQ
677,brte95,brte95,female,26,FALSE,nonsocial,0.7169,46,2,5,1,19,5,5,10,Q3,High AQ
678,brte95,brte95,female,26,TRUE,social,0.4362,58,3,2,2,19,5,5,10,Q3,High AQ
679,brte95,brte95,female,26,TRUE,nonsocial,0.4585,45,2,5,1,19,5,5,10,Q3,High AQ
680,brte95,brte95,female,26,TRUE,social,1.1466,50,3,0,2,19,5,5,10,Q3,High AQ
681,brte95,brte95,female,26,TRUE,social,0.8249,57,3,2,2,19,5,5,10,Q3,High AQ
682,brte95,brte95,female,26,FALSE,social,0.6558,53,3,1,2,19,5,5,10,Q3,High AQ
683,brte95,brte95,female,26,TRUE,nonsocial,0.4608,91,4,4,2,19,5,5,10,Q3,High AQ
684,brte95,brte95,female,26,TRUE,nonsocial,0.7444,92,4,4,2,19,5,5,10,Q3,High AQ
685,brte95,brte95,female,26,FALSE,nonsocial,0.5322,93,4,5,2,19,5,5,10,Q3,High AQ
686,brte95,brte95,female,26,FALSE,nonsocial,0.3635,94,4,5,2,19,5,5,10,Q3,High AQ
687,brte95,brte95,female,26,TRUE,nonsocial,0.6652,95,4,5,2,19,5,5,10,Q3,High AQ
688,brte95,brte95,female,26,FALSE,nonsocial,0.5589,96,4,5,2,19,5,5,10,Q3,High AQ
689,brte95,brte95,female,26,FALSE,social,0.4455,59,3,2,2,19,5,5,10,Q3,High AQ
690,brte95,brte95,female,26,TRUE,nonsocial,0.9032,47,2,5,1,19,5,5,10,Q3,High AQ
691,brte95,brte95,female,26,TRUE,nonsocial,0.5681,48,2,5,1,19,5,5,10,Q3,High AQ
692,brte95,brte95,female,26,FALSE,social,0.5382,49,3,0,2,19,5,5,10,Q3,High AQ
693,brte95,brte95,female,26,FALSE,social,0.536,62,3,3,2,19,5,5,10,Q3,High AQ
694,brte95,brte95,female,26,TRUE,social,0.4639,51,3,0,2,19,5,5,10,Q3,High AQ
695,brte95,brte95,female,26,TRUE,social,0.3128,52,3,0,2,19,5,5,10,Q3,High AQ
696,brte95,brte95,female,26,TRUE,nonsocial,0.804,25,2,0,1,19,5,5,10,Q3,High AQ
697,brte95,brte95,female,26,TRUE,nonsocial,0.8356,26,2,0,1,19,5,5,10,Q3,High AQ
698,brte95,brte95,female,26,FALSE,nonsocial,0.8132,27,2,0,1,19,5,5,10,Q3,High AQ
699,brte95,brte95,female,26,TRUE,nonsocial,0.6716,28,2,0,1,19,5,5,10,Q3,High AQ
700,brte95,brte95,female,26,TRUE,nonsocial,0.5153,29,2,1,1,19,5,5,10,Q3,High AQ
701,brte95,brte95,female,26,FALSE,nonsocial,0.821,30,2,1,1,19,5,5,10,Q3,High AQ
702,brte95,brte95,female,26,TRUE,nonsocial,0.5888,31,2,1,1,19,5,5,10,Q3,High AQ
703,brte95,brte95,female,26,FALSE,social,0.5729,71,3,5,2,19,5,5,10,Q3,High AQ
704,brte95,brte95,female,26,TRUE,social,0.7514,72,3,5,2,19,5,5,10,Q3,High AQ
705,brte95,brte95,female,26,FALSE,nonsocial,0.4796,73,4,0,2,19,5,5,10,Q3,High AQ
706,brte95,brte95,female,26,FALSE,nonsocial,0.4994,74,4,0,2,19,5,5,10,Q3,High AQ
707,brte95,brte95,female,26,TRUE,social,0.4974,63,3,3,2,19,5,5,10,Q3,High AQ
708,brte95,brte95,female,26,TRUE,social,1.3005,24,1,5,1,19,5,5,10,Q3,High AQ
709,brte95,brte95,female,26,TRUE,nonsocial,0.4998,39,2,3,1,19,5,5,10,Q3,High AQ
710,brte95,brte95,female,26,TRUE,nonsocial,0.5584,40,2,3,1,19,5,5,10,Q3,High AQ
711,brte95,brte95,female,26,FALSE,nonsocial,1.0115,41,2,4,1,19,5,5,10,Q3,High AQ
712,brte95,brte95,female,26,FALSE,nonsocial,0.6299,42,2,4,1,19,5,5,10,Q3,High AQ
713,brte95,brte95,female,26,FALSE,nonsocial,0.5824,43,2,4,1,19,5,5,10,Q3,High AQ
714,brte95,brte95,female,26,FALSE,nonsocial,0.5302,44,2,4,1,19,5,5,10,Q3,High AQ
715,brte95,brte95,female,26,TRUE,social,0.5719,1,1,0,1,19,5,5,10,Q3,High AQ
716,brte95,brte95,female,26,FALSE,social,0.7714,2,1,0,1,19,5,5,10,Q3,High AQ
717,brte95,brte95,female,26,TRUE,social,1.6797,3,1,0,1,19,5,5,10,Q3,High AQ
718,brte95,brte95,female,26,TRUE,social,1.0375,4,1,0,1,19,5,5,10,Q3,High AQ
719,brte95,brte95,female,26,TRUE,social,0.8159,5,1,1,1,19,5,5,10,Q3,High AQ
720,brte95,brte95,female,26,TRUE,social,0.8817,6,1,1,1,19,5,5,10,Q3,High AQ
721,brte95,brte95,female,26,TRUE,social,0.8552,7,1,1,1,19,5,5,10,Q3,High AQ
722,brte95,brte95,female,26,FALSE,social,1.0982,8,1,1,1,19,5,5,10,Q3,High AQ
723,brte95,brte95,female,26,TRUE,social,1.5862,9,1,2,1,19,5,5,10,Q3,High AQ
724,brte95,brte95,female,26,TRUE,social,1.2518,10,1,2,1,19,5,5,10,Q3,High AQ
725,brte95,brte95,female,26,FALSE,social,1.1833,11,1,2,1,19,5,5,10,Q3,High AQ
726,brte95,brte95,female,26,FALSE,social,0.7247,12,1,2,1,19,5,5,10,Q3,High AQ
727,brte95,brte95,female,26,TRUE,social,0.9733,13,1,3,1,19,5,5,10,Q3,High AQ
728,brte95,brte95,female,26,FALSE,social,1.0962,14,1,3,1,19,5,5,10,Q3,High AQ
729,brte95,brte95,female,26,FALSE,social,1.0737,15,1,3,1,19,5,5,10,Q3,High AQ
730,brte95,brte95,female,26,FALSE,social,0.5466,16,1,3,1,19,5,5,10,Q3,High AQ
731,brte95,brte95,female,26,FALSE,social,0.4978,60,3,2,2,19,5,5,10,Q3,High AQ
732,brte95,brte95,female,26,FALSE,social,0.7622,61,3,3,2,19,5,5,10,Q3,High AQ
733,brte95,brte95,female,26,FALSE,social,0.4429,19,1,4,1,19,5,5,10,Q3,High AQ
734,brte95,brte95,female,26,TRUE,social,0.6585,20,1,4,1,19,5,5,10,Q3,High AQ
735,brte95,brte95,female,26,FALSE,social,0.5698,21,1,5,1,19,5,5,10,Q3,High AQ
736,brte95,brte95,female,26,TRUE,social,0.7211,22,1,5,1,19,5,5,10,Q3,High AQ
737,brte95,brte95,female,26,TRUE,social,0.7138,64,3,3,2,19,5,5,10,Q3,High AQ
738,brte95,brte95,female,26,TRUE,social,0.7136,65,3,4,2,19,5,5,10,Q3,High AQ
739,brte95,brte95,female,26,FALSE,social,0.6565,66,3,4,2,19,5,5,10,Q3,High AQ
740,brte95,brte95,female,26,FALSE,social,0.5295,67,3,4,2,19,5,5,10,Q3,High AQ
741,brte95,brte95,female,26,TRUE,social,0.4735,68,3,4,2,19,5,5,10,Q3,High AQ
742,brte95,brte95,female,26,TRUE,social,0.7225,69,3,5,2,19,5,5,10,Q3,High AQ
743,brte95,brte95,female,26,FALSE,social,0.4724,70,3,5,2,19,5,5,10,Q3,High AQ
744,brte95,brte95,female,26,FALSE,nonsocial,0.61240000000000006,32,2,1,1,19,5,5,10,Q3,High AQ
745,brte95,brte95,female,26,FALSE,nonsocial,0.5457,33,2,2,1,19,5,5,10,Q3,High AQ
746,brte95,brte95,female,26,TRUE,nonsocial,1.0979,34,2,2,1,19,5,5,10,Q3,High AQ
747,brte95,brte95,female,26,TRUE,nonsocial,0.8959,35,2,2,1,19,5,5,10,Q3,High AQ
748,brte95,brte95,female,26,FALSE,nonsocial,0.6582,38,2,3,1,19,5,5,10,Q3,High AQ
749,brte95,brte95,female,26,FALSE,nonsocial,0.5692,37,2,3,1,19,5,5,10,Q3,High AQ
750,brte95,brte95,female,26,FALSE,nonsocial,0.5383,77,4,1,2,19,5,5,10,Q3,High AQ
751,brte95,brte95,female,26,FALSE,nonsocial,0.4021,78,4,1,2,19,5,5,10,Q3,High AQ
752,brte95,brte95,female,26,FALSE,nonsocial,0.8717,79,4,1,2,19,5,5,10,Q3,High AQ
753,brte95,brte95,female,26,FALSE,nonsocial,0.7209,80,4,1,2,19,5,5,10,Q3,High AQ
754,brte95,brte95,female,26,TRUE,nonsocial,0.8251,81,4,2,2,19,5,5,10,Q3,High AQ
755,brte95,brte95,female,26,FALSE,nonsocial,0.5179,82,4,2,2,19,5,5,10,Q3,High AQ
756,brte95,brte95,female,26,FALSE,nonsocial,0.5682,83,4,2,2,19,5,5,10,Q3,High AQ
757,brte95,brte95,female,26,TRUE,nonsocial,0.4973,84,4,2,2,19,5,5,10,Q3,High AQ
758,brte95,brte95,female,26,TRUE,nonsocial,0.4783,85,4,3,2,19,5,5,10,Q3,High AQ
759,brte95,brte95,female,26,TRUE,nonsocial,0.446,86,4,3,2,19,5,5,10,Q3,High AQ
760,brte95,brte95,female,26,FALSE,nonsocial,0.6264,87,4,3,2,19,5,5,10,Q3,High AQ
761,brte95,brte95,female,26,FALSE,nonsocial,0.7189,88,4,3,2,19,5,5,10,Q3,High AQ
762,brte95,brte95,female,26,TRUE,nonsocial,0.8024,89,4,4,2,19,5,5,10,Q3,High AQ
763,brte95,brte95,female,26,TRUE,nonsocial,0.538,90,4,4,2,19,5,5,10,Q3,High AQ
764,brte95,brte95,female,26,FALSE,social,0.9906,18,1,4,1,19,5,5,10,Q3,High AQ
765,brte95,brte95,female,26,FALSE,nonsocial,0.5029,75,4,0,2,19,5,5,10,Q3,High AQ
766,brte95,brte95,female,26,TRUE,social,0.6143,17,1,4,1,19,5,5,10,Q3,High AQ
767,brte95,brte95,female,26,FALSE,nonsocial,0.4427,76,4,0,2,19,5,5,10,Q3,High AQ
768,brte95,brte95,female,26,FALSE,nonsocial,0.5362,36,2,2,1,19,5,5,10,Q3,High AQ
769,clwe99,clwe99,male,22,TRUE,social,1.2007,61,3,3,2,13,2,5,7,Q3,High AQ
770,clwe99,clwe99,male,22,TRUE,social,1.1204,65,3,4,2,13,2,5,7,Q3,High AQ
771,clwe99,clwe99,male,22,TRUE,social,1.4608,62,3,3,2,13,2,5,7,Q3,High AQ
772,clwe99,clwe99,male,22,TRUE,nonsocial,4.0716,31,2,1,1,13,2,5,7,Q3,High AQ
773,clwe99,clwe99,male,22,FALSE,nonsocial,NA,32,2,1,1,13,2,5,7,Q3,High AQ
774,clwe99,clwe99,male,22,TRUE,social,0.718,63,3,3,2,13,2,5,7,Q3,High AQ
775,clwe99,clwe99,male,22,TRUE,social,1.7914,64,3,3,2,13,2,5,7,Q3,High AQ
776,clwe99,clwe99,male,22,TRUE,social,0.8432,60,3,2,2,13,2,5,7,Q3,High AQ
777,clwe99,clwe99,male,22,TRUE,nonsocial,1.3189,88,4,3,2,13,2,5,7,Q3,High AQ
778,clwe99,clwe99,male,22,TRUE,nonsocial,0.9641,89,4,4,2,13,2,5,7,Q3,High AQ
779,clwe99,clwe99,male,22,FALSE,nonsocial,1.5413,90,4,4,2,13,2,5,7,Q3,High AQ
780,clwe99,clwe99,male,22,TRUE,nonsocial,1.5705,91,4,4,2,13,2,5,7,Q3,High AQ
781,clwe99,clwe99,male,22,TRUE,nonsocial,1.0932,92,4,4,2,13,2,5,7,Q3,High AQ
782,clwe99,clwe99,male,22,TRUE,nonsocial,1.4268,93,4,5,2,13,2,5,7,Q3,High AQ
783,clwe99,clwe99,male,22,TRUE,nonsocial,1.0576,94,4,5,2,13,2,5,7,Q3,High AQ
784,clwe99,clwe99,male,22,FALSE,nonsocial,1.0049,95,4,5,2,13,2,5,7,Q3,High AQ
785,clwe99,clwe99,male,22,TRUE,nonsocial,0.7544,96,4,5,2,13,2,5,7,Q3,High AQ
786,clwe99,clwe99,male,22,TRUE,social,1.0818,56,3,1,2,13,2,5,7,Q3,High AQ
787,clwe99,clwe99,male,22,TRUE,nonsocial,1.6947,33,2,2,1,13,2,5,7,Q3,High AQ
788,clwe99,clwe99,male,22,TRUE,social,0.8727,59,3,2,2,13,2,5,7,Q3,High AQ
789,clwe99,clwe99,male,22,TRUE,social,2.9923,20,1,4,1,13,2,5,7,Q3,High AQ
790,clwe99,clwe99,male,22,TRUE,social,1.3761,21,1,5,1,13,2,5,7,Q3,High AQ
791,clwe99,clwe99,male,22,FALSE,social,2.6267,22,1,5,1,13,2,5,7,Q3,High AQ
792,clwe99,clwe99,male,22,TRUE,social,0.8861,23,1,5,1,13,2,5,7,Q3,High AQ
793,clwe99,clwe99,male,22,TRUE,social,0.7924,24,1,5,1,13,2,5,7,Q3,High AQ
794,clwe99,clwe99,male,22,FALSE,nonsocial,3.1743,25,2,0,1,13,2,5,7,Q3,High AQ
795,clwe99,clwe99,male,22,FALSE,nonsocial,1.2838,26,2,0,1,13,2,5,7,Q3,High AQ
796,clwe99,clwe99,male,22,TRUE,social,1.3271,66,3,4,2,13,2,5,7,Q3,High AQ
797,clwe99,clwe99,male,22,TRUE,social,1.5269,67,3,4,2,13,2,5,7,Q3,High AQ
798,clwe99,clwe99,male,22,TRUE,social,0.741,68,3,4,2,13,2,5,7,Q3,High AQ
799,clwe99,clwe99,male,22,TRUE,social,1.2753,69,3,5,2,13,2,5,7,Q3,High AQ
800,clwe99,clwe99,male,22,TRUE,social,2.1067,57,3,2,2,13,2,5,7,Q3,High AQ
801,clwe99,clwe99,male,22,TRUE,nonsocial,1.6232,34,2,2,1,13,2,5,7,Q3,High AQ
802,clwe99,clwe99,male,22,TRUE,social,1.3089,72,3,5,2,13,2,5,7,Q3,High AQ
803,clwe99,clwe99,male,22,TRUE,nonsocial,1.9762,35,2,2,1,13,2,5,7,Q3,High AQ
804,clwe99,clwe99,male,22,FALSE,nonsocial,0.7582,36,2,2,1,13,2,5,7,Q3,High AQ
805,clwe99,clwe99,male,22,TRUE,nonsocial,1.2229,37,2,3,1,13,2,5,7,Q3,High AQ
806,clwe99,clwe99,male,22,TRUE,nonsocial,1.3869,38,2,3,1,13,2,5,7,Q3,High AQ
807,clwe99,clwe99,male,22,TRUE,nonsocial,1.639,39,2,3,1,13,2,5,7,Q3,High AQ
808,clwe99,clwe99,male,22,TRUE,nonsocial,1.953,40,2,3,1,13,2,5,7,Q3,High AQ
809,clwe99,clwe99,male,22,TRUE,nonsocial,1.0416,41,2,4,1,13,2,5,7,Q3,High AQ
810,clwe99,clwe99,male,22,FALSE,nonsocial,2.2229,42,2,4,1,13,2,5,7,Q3,High AQ
811,clwe99,clwe99,male,22,FALSE,nonsocial,1.3477,43,2,4,1,13,2,5,7,Q3,High AQ
812,clwe99,clwe99,male,22,TRUE,nonsocial,0.9557,44,2,4,1,13,2,5,7,Q3,High AQ
813,clwe99,clwe99,male,22,TRUE,social,0.9393,70,3,5,2,13,2,5,7,Q3,High AQ
814,clwe99,clwe99,male,22,TRUE,social,1.4184,58,3,2,2,13,2,5,7,Q3,High AQ
815,clwe99,clwe99,male,22,TRUE,nonsocial,1.2073,86,4,3,2,13,2,5,7,Q3,High AQ
816,clwe99,clwe99,male,22,TRUE,nonsocial,0.8477,87,4,3,2,13,2,5,7,Q3,High AQ
817,clwe99,clwe99,male,22,TRUE,nonsocial,0.6821,47,2,5,1,13,2,5,7,Q3,High AQ
818,clwe99,clwe99,male,22,FALSE,nonsocial,2.6246,48,2,5,1,13,2,5,7,Q3,High AQ
819,clwe99,clwe99,male,22,TRUE,social,1.4556,49,3,0,2,13,2,5,7,Q3,High AQ
820,clwe99,clwe99,male,22,FALSE,social,2.0058,50,3,0,2,13,2,5,7,Q3,High AQ
821,clwe99,clwe99,male,22,TRUE,social,2.713,51,3,0,2,13,2,5,7,Q3,High AQ
822,clwe99,clwe99,male,22,TRUE,social,1.0048,52,3,0,2,13,2,5,7,Q3,High AQ
823,clwe99,clwe99,male,22,TRUE,social,2.1796,53,3,1,2,13,2,5,7,Q3,High AQ
824,clwe99,clwe99,male,22,TRUE,social,1.3061,54,3,1,2,13,2,5,7,Q3,High AQ
825,clwe99,clwe99,male,22,FALSE,social,1.7727,55,3,1,2,13,2,5,7,Q3,High AQ
826,clwe99,clwe99,male,22,FALSE,social,2.5234,16,1,3,1,13,2,5,7,Q3,High AQ
827,clwe99,clwe99,male,22,TRUE,social,0.9313,71,3,5,2,13,2,5,7,Q3,High AQ
828,clwe99,clwe99,male,22,TRUE,social,1.0037,18,1,4,1,13,2,5,7,Q3,High AQ
829,clwe99,clwe99,male,22,TRUE,social,1.5244,19,1,4,1,13,2,5,7,Q3,High AQ
830,clwe99,clwe99,male,22,TRUE,nonsocial,2.0291,73,4,0,2,13,2,5,7,Q3,High AQ
831,clwe99,clwe99,male,22,FALSE,nonsocial,0.7079,74,4,0,2,13,2,5,7,Q3,High AQ
832,clwe99,clwe99,male,22,TRUE,nonsocial,1.9736,75,4,0,2,13,2,5,7,Q3,High AQ
833,clwe99,clwe99,male,22,TRUE,nonsocial,1.6448,76,4,0,2,13,2,5,7,Q3,High AQ
834,clwe99,clwe99,male,22,FALSE,nonsocial,1.1526,77,4,1,2,13,2,5,7,Q3,High AQ
835,clwe99,clwe99,male,22,TRUE,nonsocial,2.9527,78,4,1,2,13,2,5,7,Q3,High AQ
836,clwe99,clwe99,male,22,FALSE,nonsocial,2.5268,27,2,0,1,13,2,5,7,Q3,High AQ
837,clwe99,clwe99,male,22,FALSE,nonsocial,1.5719,28,2,0,1,13,2,5,7,Q3,High AQ
838,clwe99,clwe99,male,22,FALSE,nonsocial,1.3876,29,2,1,1,13,2,5,7,Q3,High AQ
839,clwe99,clwe99,male,22,FALSE,nonsocial,2.0423,30,2,1,1,13,2,5,7,Q3,High AQ
840,clwe99,clwe99,male,22,TRUE,social,1.3421,17,1,4,1,13,2,5,7,Q3,High AQ
841,clwe99,clwe99,male,22,FALSE,nonsocial,1.3506,85,4,3,2,13,2,5,7,Q3,High AQ
842,clwe99,clwe99,male,22,FALSE,nonsocial,2.1591,84,4,2,2,13,2,5,7,Q3,High AQ
843,clwe99,clwe99,male,22,TRUE,nonsocial,1.7581,45,2,5,1,13,2,5,7,Q3,High AQ
844,clwe99,clwe99,male,22,FALSE,nonsocial,1.5183,46,2,5,1,13,2,5,7,Q3,High AQ
845,clwe99,clwe99,male,22,TRUE,social,0.8087,8,1,1,1,13,2,5,7,Q3,High AQ
846,clwe99,clwe99,male,22,TRUE,social,2.3033,9,1,2,1,13,2,5,7,Q3,High AQ
847,clwe99,clwe99,male,22,FALSE,social,3.7241,10,1,2,1,13,2,5,7,Q3,High AQ
848,clwe99,clwe99,male,22,TRUE,social,1.3953,11,1,2,1,13,2,5,7,Q3,High AQ
849,clwe99,clwe99,male,22,TRUE,social,1.887,1,1,0,1,13,2,5,7,Q3,High AQ
850,clwe99,clwe99,male,22,TRUE,social,0.9081,2,1,0,1,13,2,5,7,Q3,High AQ
851,clwe99,clwe99,male,22,FALSE,social,1.9478,3,1,0,1,13,2,5,7,Q3,High AQ
852,clwe99,clwe99,male,22,TRUE,social,3.0702,4,1,0,1,13,2,5,7,Q3,High AQ
853,clwe99,clwe99,male,22,TRUE,nonsocial,2.4523,80,4,1,2,13,2,5,7,Q3,High AQ
854,clwe99,clwe99,male,22,TRUE,nonsocial,1.5646,81,4,2,2,13,2,5,7,Q3,High AQ
855,clwe99,clwe99,male,22,TRUE,nonsocial,1.538,82,4,2,2,13,2,5,7,Q3,High AQ
856,clwe99,clwe99,male,22,TRUE,nonsocial,1.8979,83,4,2,2,13,2,5,7,Q3,High AQ
857,clwe99,clwe99,male,22,TRUE,social,4.3961,6,1,1,1,13,2,5,7,Q3,High AQ
858,clwe99,clwe99,male,22,TRUE,social,0.7759,7,1,1,1,13,2,5,7,Q3,High AQ
859,clwe99,clwe99,male,22,TRUE,social,1.3938,13,1,3,1,13,2,5,7,Q3,High AQ
860,clwe99,clwe99,male,22,FALSE,social,3.8275,14,1,3,1,13,2,5,7,Q3,High AQ
861,clwe99,clwe99,male,22,TRUE,social,1.2433,15,1,3,1,13,2,5,7,Q3,High AQ
862,clwe99,clwe99,male,22,FALSE,social,3.4787,12,1,2,1,13,2,5,7,Q3,High AQ
863,clwe99,clwe99,male,22,TRUE,social,1.1666,5,1,1,1,13,2,5,7,Q3,High AQ
864,clwe99,clwe99,male,22,TRUE,nonsocial,0.9433,79,4,1,2,13,2,5,7,Q3,High AQ
865,copr92,copr92,female,29,FALSE,social,0.4272,8,1,1,1,9,5,2,7,median,Low AQ
866,copr92,copr92,female,29,FALSE,social,0.4356,9,1,2,1,9,5,2,7,median,Low AQ
867,copr92,copr92,female,29,TRUE,social,0.2952,10,1,2,1,9,5,2,7,median,Low AQ
868,copr92,copr92,female,29,FALSE,social,0.3873,15,1,3,1,9,5,2,7,median,Low AQ
869,copr92,copr92,female,29,FALSE,social,0.2635,16,1,3,1,9,5,2,7,median,Low AQ
870,copr92,copr92,female,29,TRUE,social,0.6987,5,1,1,1,9,5,2,7,median,Low AQ
871,copr92,copr92,female,29,TRUE,social,0.5022,7,1,1,1,9,5,2,7,median,Low AQ
872,copr92,copr92,female,29,FALSE,nonsocial,0.5127,88,4,3,2,9,5,2,7,median,Low AQ
873,copr92,copr92,female,29,FALSE,nonsocial,0.334,89,4,4,2,9,5,2,7,median,Low AQ
874,copr92,copr92,female,29,FALSE,social,0.3898,14,1,3,1,9,5,2,7,median,Low AQ
875,copr92,copr92,female,29,TRUE,nonsocial,0.4949,91,4,4,2,9,5,2,7,median,Low AQ
876,copr92,copr92,female,29,FALSE,nonsocial,0.3817,92,4,4,2,9,5,2,7,median,Low AQ
877,copr92,copr92,female,29,FALSE,social,0.373,11,1,2,1,9,5,2,7,median,Low AQ
878,copr92,copr92,female,29,TRUE,nonsocial,0.3148,90,4,4,2,9,5,2,7,median,Low AQ
879,copr92,copr92,female,29,FALSE,social,1.0586,1,1,0,1,9,5,2,7,median,Low AQ
880,copr92,copr92,female,29,TRUE,social,0.8948,2,1,0,1,9,5,2,7,median,Low AQ
881,copr92,copr92,female,29,FALSE,social,1.0114,3,1,0,1,9,5,2,7,median,Low AQ
882,copr92,copr92,female,29,TRUE,social,0.7858,4,1,0,1,9,5,2,7,median,Low AQ
883,copr92,copr92,female,29,TRUE,social,0.4979,6,1,1,1,9,5,2,7,median,Low AQ
884,copr92,copr92,female,29,FALSE,nonsocial,0.4452,87,4,3,2,9,5,2,7,median,Low AQ
885,copr92,copr92,female,29,TRUE,social,0.5868,61,3,3,2,9,5,2,7,median,Low AQ
886,copr92,copr92,female,29,FALSE,social,0.5348,62,3,3,2,9,5,2,7,median,Low AQ
887,copr92,copr92,female,29,FALSE,social,0.3156,63,3,3,2,9,5,2,7,median,Low AQ
888,copr92,copr92,female,29,FALSE,social,0.3226,64,3,3,2,9,5,2,7,median,Low AQ
889,copr92,copr92,female,29,FALSE,social,0.9686,65,3,4,2,9,5,2,7,median,Low AQ
890,copr92,copr92,female,29,FALSE,social,0.4821,66,3,4,2,9,5,2,7,median,Low AQ
891,copr92,copr92,female,29,TRUE,social,0.6165,12,1,2,1,9,5,2,7,median,Low AQ
892,copr92,copr92,female,29,TRUE,social,0.4263,13,1,3,1,9,5,2,7,median,Low AQ
893,copr92,copr92,female,29,TRUE,social,0.3554,56,3,1,2,9,5,2,7,median,Low AQ
894,copr92,copr92,female,29,TRUE,social,2.2703,57,3,2,2,9,5,2,7,median,Low AQ
895,copr92,copr92,female,29,TRUE,social,0.5372,58,3,2,2,9,5,2,7,median,Low AQ
896,copr92,copr92,female,29,FALSE,nonsocial,0.3431,86,4,3,2,9,5,2,7,median,Low AQ
897,copr92,copr92,female,29,FALSE,social,0.2927,60,3,2,2,9,5,2,7,median,Low AQ
898,copr92,copr92,female,29,FALSE,nonsocial,1.7371,74,4,0,2,9,5,2,7,median,Low AQ
899,copr92,copr92,female,29,TRUE,nonsocial,0.594,75,4,0,2,9,5,2,7,median,Low AQ
900,copr92,copr92,female,29,FALSE,nonsocial,0.4134,76,4,0,2,9,5,2,7,median,Low AQ
901,copr92,copr92,female,29,FALSE,nonsocial,0.4619,77,4,1,2,9,5,2,7,median,Low AQ
902,copr92,copr92,female,29,FALSE,nonsocial,0.3009,78,4,1,2,9,5,2,7,median,Low AQ
903,copr92,copr92,female,29,FALSE,nonsocial,0.4509,79,4,1,2,9,5,2,7,median,Low AQ
904,copr92,copr92,female,29,FALSE,nonsocial,0.6094,80,4,1,2,9,5,2,7,median,Low AQ
905,copr92,copr92,female,29,TRUE,nonsocial,3.3899,81,4,2,2,9,5,2,7,median,Low AQ
906,copr92,copr92,female,29,TRUE,nonsocial,0.2987,82,4,2,2,9,5,2,7,median,Low AQ
907,copr92,copr92,female,29,FALSE,nonsocial,0.2858,83,4,2,2,9,5,2,7,median,Low AQ
908,copr92,copr92,female,29,FALSE,nonsocial,0.3176,84,4,2,2,9,5,2,7,median,Low AQ
909,copr92,copr92,female,29,FALSE,social,0.4964,59,3,2,2,9,5,2,7,median,Low AQ
910,copr92,copr92,female,29,TRUE,nonsocial,0.3814,45,2,5,1,9,5,2,7,median,Low AQ
911,copr92,copr92,female,29,TRUE,nonsocial,0.387,46,2,5,1,9,5,2,7,median,Low AQ
912,copr92,copr92,female,29,FALSE,nonsocial,0.9105,47,2,5,1,9,5,2,7,median,Low AQ
913,copr92,copr92,female,29,FALSE,nonsocial,0.469,48,2,5,1,9,5,2,7,median,Low AQ
914,copr92,copr92,female,29,TRUE,social,0.3642,49,3,0,2,9,5,2,7,median,Low AQ
915,copr92,copr92,female,29,TRUE,social,0.3619,50,3,0,2,9,5,2,7,median,Low AQ
916,copr92,copr92,female,29,FALSE,social,0.4162,51,3,0,2,9,5,2,7,median,Low AQ
917,copr92,copr92,female,29,FALSE,nonsocial,0.4658,93,4,5,2,9,5,2,7,median,Low AQ
918,copr92,copr92,female,29,FALSE,nonsocial,0.3379,94,4,5,2,9,5,2,7,median,Low AQ
919,copr92,copr92,female,29,TRUE,nonsocial,0.3312,95,4,5,2,9,5,2,7,median,Low AQ
920,copr92,copr92,female,29,TRUE,nonsocial,0.3433,96,4,5,2,9,5,2,7,median,Low AQ
921,copr92,copr92,female,29,FALSE,social,0.2917,70,3,5,2,9,5,2,7,median,Low AQ
922,copr92,copr92,female,29,TRUE,nonsocial,0.3751,85,4,3,2,9,5,2,7,median,Low AQ
923,copr92,copr92,female,29,TRUE,nonsocial,0.3572,28,2,0,1,9,5,2,7,median,Low AQ
924,copr92,copr92,female,29,FALSE,social,0.4028,17,1,4,1,9,5,2,7,median,Low AQ
925,copr92,copr92,female,29,FALSE,social,0.4954,18,1,4,1,9,5,2,7,median,Low AQ
926,copr92,copr92,female,29,FALSE,social,0.3309,19,1,4,1,9,5,2,7,median,Low AQ
927,copr92,copr92,female,29,TRUE,social,0.3161,20,1,4,1,9,5,2,7,median,Low AQ
928,copr92,copr92,female,29,TRUE,social,0.3599,21,1,5,1,9,5,2,7,median,Low AQ
929,copr92,copr92,female,29,FALSE,social,0.4186,22,1,5,1,9,5,2,7,median,Low AQ
930,copr92,copr92,female,29,TRUE,social,0.4303,23,1,5,1,9,5,2,7,median,Low AQ
931,copr92,copr92,female,29,TRUE,social,0.4445,67,3,4,2,9,5,2,7,median,Low AQ
932,copr92,copr92,female,29,FALSE,social,0.8543,68,3,4,2,9,5,2,7,median,Low AQ
933,copr92,copr92,female,29,TRUE,social,0.3699,69,3,5,2,9,5,2,7,median,Low AQ
934,copr92,copr92,female,29,TRUE,nonsocial,0.4155,39,2,3,1,9,5,2,7,median,Low AQ
935,copr92,copr92,female,29,TRUE,nonsocial,0.3726,40,2,3,1,9,5,2,7,median,Low AQ
936,copr92,copr92,female,29,FALSE,nonsocial,0.3916,41,2,4,1,9,5,2,7,median,Low AQ
937,copr92,copr92,female,29,TRUE,social,0.3138,72,3,5,2,9,5,2,7,median,Low AQ
938,copr92,copr92,female,29,FALSE,nonsocial,0.32,73,4,0,2,9,5,2,7,median,Low AQ
939,copr92,copr92,female,29,FALSE,nonsocial,0.3317,31,2,1,1,9,5,2,7,median,Low AQ
940,copr92,copr92,female,29,FALSE,nonsocial,0.4137,32,2,1,1,9,5,2,7,median,Low AQ
941,copr92,copr92,female,29,TRUE,nonsocial,0.5698,33,2,2,1,9,5,2,7,median,Low AQ
942,copr92,copr92,female,29,FALSE,nonsocial,0.3624,34,2,2,1,9,5,2,7,median,Low AQ
943,copr92,copr92,female,29,TRUE,nonsocial,0.2797,35,2,2,1,9,5,2,7,median,Low AQ
944,copr92,copr92,female,29,TRUE,nonsocial,0.3124,36,2,2,1,9,5,2,7,median,Low AQ
945,copr92,copr92,female,29,FALSE,nonsocial,0.41,37,2,3,1,9,5,2,7,median,Low AQ
946,copr92,copr92,female,29,FALSE,nonsocial,0.3296,38,2,3,1,9,5,2,7,median,Low AQ
947,copr92,copr92,female,29,FALSE,social,0.7081,55,3,1,2,9,5,2,7,median,Low AQ
948,copr92,copr92,female,29,TRUE,nonsocial,0.3383,27,2,0,1,9,5,2,7,median,Low AQ
949,copr92,copr92,female,29,FALSE,social,0.3652,71,3,5,2,9,5,2,7,median,Low AQ
950,copr92,copr92,female,29,TRUE,nonsocial,0.3164,42,2,4,1,9,5,2,7,median,Low AQ
951,copr92,copr92,female,29,TRUE,nonsocial,0.3376,43,2,4,1,9,5,2,7,median,Low AQ
952,copr92,copr92,female,29,FALSE,nonsocial,0.5623,44,2,4,1,9,5,2,7,median,Low AQ
953,copr92,copr92,female,29,FALSE,social,0.4798,52,3,0,2,9,5,2,7,median,Low AQ
954,copr92,copr92,female,29,TRUE,social,0.4513,53,3,1,2,9,5,2,7,median,Low AQ
955,copr92,copr92,female,29,FALSE,social,0.3234,54,3,1,2,9,5,2,7,median,Low AQ
956,copr92,copr92,female,29,TRUE,nonsocial,0.4569,26,2,0,1,9,5,2,7,median,Low AQ
957,copr92,copr92,female,29,FALSE,nonsocial,0.3333,30,2,1,1,9,5,2,7,median,Low AQ
958,copr92,copr92,female,29,FALSE,social,0.2403,24,1,5,1,9,5,2,7,median,Low AQ
959,copr92,copr92,female,29,TRUE,nonsocial,0.2993,29,2,1,1,9,5,2,7,median,Low AQ
960,copr92,copr92,female,29,TRUE,nonsocial,1.1297,25,2,0,1,9,5,2,7,median,Low AQ
961,djlu96,djlu96,male,26,FALSE,nonsocial,0.7881,35,2,2,1,11,3,3,6,median,High AQ
962,djlu96,djlu96,male,26,TRUE,nonsocial,1.0901,34,2,2,1,11,3,3,6,median,High AQ
963,djlu96,djlu96,male,26,TRUE,social,0.6767,3,1,0,1,11,3,3,6,median,High AQ
964,djlu96,djlu96,male,26,TRUE,nonsocial,1.3718,36,2,2,1,11,3,3,6,median,High AQ
965,djlu96,djlu96,male,26,FALSE,social,0.7314,2,1,0,1,11,3,3,6,median,High AQ
966,djlu96,djlu96,male,26,FALSE,social,1.1312,6,1,1,1,11,3,3,6,median,High AQ
967,djlu96,djlu96,male,26,TRUE,nonsocial,0.7066,43,2,4,1,11,3,3,6,median,High AQ
968,djlu96,djlu96,male,26,FALSE,nonsocial,1.6752,37,2,3,1,11,3,3,6,median,High AQ
969,djlu96,djlu96,male,26,FALSE,social,1.3226,9,1,2,1,11,3,3,6,median,High AQ
970,djlu96,djlu96,male,26,FALSE,social,0.9339,10,1,2,1,11,3,3,6,median,High AQ
971,djlu96,djlu96,male,26,FALSE,social,0.5368,7,1,1,1,11,3,3,6,median,High AQ
972,djlu96,djlu96,male,26,FALSE,social,0.7194,8,1,1,1,11,3,3,6,median,High AQ
973,djlu96,djlu96,male,26,FALSE,social,0.7266,1,1,0,1,11,3,3,6,median,High AQ
974,djlu96,djlu96,male,26,FALSE,nonsocial,1.2842,41,2,4,1,11,3,3,6,median,High AQ
975,djlu96,djlu96,male,26,TRUE,nonsocial,0.8227,42,2,4,1,11,3,3,6,median,High AQ
976,djlu96,djlu96,male,26,FALSE,social,3.3225,17,1,4,1,11,3,3,6,median,High AQ
977,djlu96,djlu96,male,26,TRUE,social,0.5923,4,1,0,1,11,3,3,6,median,High AQ
978,djlu96,djlu96,male,26,TRUE,social,2.2817,5,1,1,1,11,3,3,6,median,High AQ
979,djlu96,djlu96,male,26,TRUE,social,1.7309,20,1,4,1,11,3,3,6,median,High AQ
980,djlu96,djlu96,male,26,TRUE,social,1.6837,21,1,5,1,11,3,3,6,median,High AQ
981,djlu96,djlu96,male,26,TRUE,social,1.6767,22,1,5,1,11,3,3,6,median,High AQ
982,djlu96,djlu96,male,26,TRUE,social,1.2749,23,1,5,1,11,3,3,6,median,High AQ
983,djlu96,djlu96,male,26,TRUE,social,0.4344,24,1,5,1,11,3,3,6,median,High AQ
984,djlu96,djlu96,male,26,FALSE,nonsocial,1.2638,25,2,0,1,11,3,3,6,median,High AQ
985,djlu96,djlu96,male,26,FALSE,nonsocial,1.3578,26,2,0,1,11,3,3,6,median,High AQ
986,djlu96,djlu96,male,26,TRUE,nonsocial,0.858,27,2,0,1,11,3,3,6,median,High AQ
987,djlu96,djlu96,male,26,TRUE,nonsocial,1.1665,28,2,0,1,11,3,3,6,median,High AQ
988,djlu96,djlu96,male,26,TRUE,nonsocial,1.0304,29,2,1,1,11,3,3,6,median,High AQ
989,djlu96,djlu96,male,26,TRUE,nonsocial,0.8122,30,2,1,1,11,3,3,6,median,High AQ
990,djlu96,djlu96,male,26,TRUE,nonsocial,0.728,31,2,1,1,11,3,3,6,median,High AQ
991,djlu96,djlu96,male,26,FALSE,nonsocial,0.6436,32,2,1,1,11,3,3,6,median,High AQ
992,djlu96,djlu96,male,26,TRUE,nonsocial,1.5144,33,2,2,1,11,3,3,6,median,High AQ
993,djlu96,djlu96,male,26,FALSE,social,1.2284,71,3,5,2,11,3,3,6,median,High AQ
994,djlu96,djlu96,male,26,TRUE,social,0.3407,72,3,5,2,11,3,3,6,median,High AQ
995,djlu96,djlu96,male,26,FALSE,nonsocial,1.9688,73,4,0,2,11,3,3,6,median,High AQ
996,djlu96,djlu96,male,26,FALSE,nonsocial,1.1273,74,4,0,2,11,3,3,6,median,High AQ
997,djlu96,djlu96,male,26,TRUE,nonsocial,0.7521,75,4,0,2,11,3,3,6,median,High AQ
998,djlu96,djlu96,male,26,TRUE,nonsocial,1.0774,38,2,3,1,11,3,3,6,median,High AQ
999,djlu96,djlu96,male,26,TRUE,nonsocial,0.7631,39,2,3,1,11,3,3,6,median,High AQ
1000,djlu96,djlu96,male,26,FALSE,nonsocial,0.6185,40,2,3,1,11,3,3,6,median,High AQ
1001,djlu96,djlu96,male,26,FALSE,nonsocial,1.5109,81,4,2,2,11,3,3,6,median,High AQ
1002,djlu96,djlu96,male,26,TRUE,nonsocial,0.7915,82,4,2,2,11,3,3,6,median,High AQ
1003,djlu96,djlu96,male,26,TRUE,nonsocial,1.3218,83,4,2,2,11,3,3,6,median,High AQ
1004,djlu96,djlu96,male,26,FALSE,nonsocial,1.1459,84,4,2,2,11,3,3,6,median,High AQ
1005,djlu96,djlu96,male,26,FALSE,nonsocial,1.1488,85,4,3,2,11,3,3,6,median,High AQ
1006,djlu96,djlu96,male,26,FALSE,nonsocial,1.1673,86,4,3,2,11,3,3,6,median,High AQ
1007,djlu96,djlu96,male,26,FALSE,nonsocial,0.4213,87,4,3,2,11,3,3,6,median,High AQ
1008,djlu96,djlu96,male,26,TRUE,nonsocial,0.4193,88,4,3,2,11,3,3,6,median,High AQ
1009,djlu96,djlu96,male,26,FALSE,nonsocial,0.719,89,4,4,2,11,3,3,6,median,High AQ
1010,djlu96,djlu96,male,26,TRUE,nonsocial,0.4086,90,4,4,2,11,3,3,6,median,High AQ
1011,djlu96,djlu96,male,26,TRUE,nonsocial,0.3934,91,4,4,2,11,3,3,6,median,High AQ
1012,djlu96,djlu96,male,26,FALSE,nonsocial,0.3911,92,4,4,2,11,3,3,6,median,High AQ
1013,djlu96,djlu96,male,26,TRUE,nonsocial,0.7851,93,4,5,2,11,3,3,6,median,High AQ
1014,djlu96,djlu96,male,26,FALSE,nonsocial,0.5579,94,4,5,2,11,3,3,6,median,High AQ
1015,djlu96,djlu96,male,26,FALSE,nonsocial,0.5918,95,4,5,2,11,3,3,6,median,High AQ
1016,djlu96,djlu96,male,26,TRUE,social,1.4073,16,1,3,1,11,3,3,6,median,High AQ
1017,djlu96,djlu96,male,26,TRUE,social,2.7956,18,1,4,1,11,3,3,6,median,High AQ
1018,djlu96,djlu96,male,26,TRUE,social,2.0766,19,1,4,1,11,3,3,6,median,High AQ
1019,djlu96,djlu96,male,26,FALSE,social,1.6729,56,3,1,2,11,3,3,6,median,High AQ
1020,djlu96,djlu96,male,26,TRUE,social,1.4615,57,3,2,2,11,3,3,6,median,High AQ
1021,djlu96,djlu96,male,26,TRUE,social,1.7154,58,3,2,2,11,3,3,6,median,High AQ
1022,djlu96,djlu96,male,26,TRUE,social,1.8213,59,3,2,2,11,3,3,6,median,High AQ
1023,djlu96,djlu96,male,26,FALSE,social,0.6638,60,3,2,2,11,3,3,6,median,High AQ
1024,djlu96,djlu96,male,26,FALSE,social,1.5759,61,3,3,2,11,3,3,6,median,High AQ
1025,djlu96,djlu96,male,26,TRUE,social,0.7464,62,3,3,2,11,3,3,6,median,High AQ
1026,djlu96,djlu96,male,26,FALSE,social,0.5334,63,3,3,2,11,3,3,6,median,High AQ
1027,djlu96,djlu96,male,26,TRUE,social,0.5646,64,3,3,2,11,3,3,6,median,High AQ
1028,djlu96,djlu96,male,26,TRUE,social,0.793,65,3,4,2,11,3,3,6,median,High AQ
1029,djlu96,djlu96,male,26,TRUE,social,1.1166,66,3,4,2,11,3,3,6,median,High AQ
1030,djlu96,djlu96,male,26,FALSE,social,2.0731,67,3,4,2,11,3,3,6,median,High AQ
1031,djlu96,djlu96,male,26,FALSE,social,0.5159,68,3,4,2,11,3,3,6,median,High AQ
1032,djlu96,djlu96,male,26,TRUE,social,1.5313,69,3,5,2,11,3,3,6,median,High AQ
1033,djlu96,djlu96,male,26,TRUE,social,1.4542,70,3,5,2,11,3,3,6,median,High AQ
1034,djlu96,djlu96,male,26,FALSE,nonsocial,2.4192,45,2,5,1,11,3,3,6,median,High AQ
1035,djlu96,djlu96,male,26,FALSE,nonsocial,2.0835,46,2,5,1,11,3,3,6,median,High AQ
1036,djlu96,djlu96,male,26,TRUE,nonsocial,1.2093,47,2,5,1,11,3,3,6,median,High AQ
1037,djlu96,djlu96,male,26,TRUE,nonsocial,0.877,48,2,5,1,11,3,3,6,median,High AQ
1038,djlu96,djlu96,male,26,FALSE,nonsocial,0.5991,76,4,0,2,11,3,3,6,median,High AQ
1039,djlu96,djlu96,male,26,TRUE,nonsocial,0.8157,77,4,1,2,11,3,3,6,median,High AQ
1040,djlu96,djlu96,male,26,TRUE,nonsocial,0.7524,78,4,1,2,11,3,3,6,median,High AQ
1041,djlu96,djlu96,male,26,FALSE,nonsocial,0.8362,79,4,1,2,11,3,3,6,median,High AQ
1042,djlu96,djlu96,male,26,FALSE,nonsocial,0.7959,80,4,1,2,11,3,3,6,median,High AQ
1043,djlu96,djlu96,male,26,FALSE,nonsocial,0.4806,96,4,5,2,11,3,3,6,median,High AQ
1044,djlu96,djlu96,male,26,TRUE,social,1.6907,54,3,1,2,11,3,3,6,median,High AQ
1045,djlu96,djlu96,male,26,TRUE,social,1.085,55,3,1,2,11,3,3,6,median,High AQ
1046,djlu96,djlu96,male,26,TRUE,nonsocial,0.6058,44,2,4,1,11,3,3,6,median,High AQ
1047,djlu96,djlu96,male,26,FALSE,social,1.2071,49,3,0,2,11,3,3,6,median,High AQ
1048,djlu96,djlu96,male,26,FALSE,social,2.169,11,1,2,1,11,3,3,6,median,High AQ
1049,djlu96,djlu96,male,26,TRUE,social,1.8552,12,1,2,1,11,3,3,6,median,High AQ
1050,djlu96,djlu96,male,26,FALSE,social,2.3949,13,1,3,1,11,3,3,6,median,High AQ
1051,djlu96,djlu96,male,26,FALSE,social,3.2102,14,1,3,1,11,3,3,6,median,High AQ
1052,djlu96,djlu96,male,26,TRUE,social,1.9642,53,3,1,2,11,3,3,6,median,High AQ
1053,djlu96,djlu96,male,26,FALSE,social,2.3337,15,1,3,1,11,3,3,6,median,High AQ
1054,djlu96,djlu96,male,26,TRUE,social,0.7989,50,3,0,2,11,3,3,6,median,High AQ
1055,djlu96,djlu96,male,26,TRUE,social,1.7064,51,3,0,2,11,3,3,6,median,High AQ
1056,djlu96,djlu96,male,26,TRUE,social,0.5276,52,3,0,2,11,3,3,6,median,High AQ
1057,dmal96,dmal96,male,25,TRUE,social,1.7406,63,3,3,2,3,1,2,3,Q1,Low AQ
1058,dmal96,dmal96,male,25,TRUE,social,2.0495,64,3,3,2,3,1,2,3,Q1,Low AQ
1059,dmal96,dmal96,male,25,FALSE,social,2.3496,61,3,3,2,3,1,2,3,Q1,Low AQ
1060,dmal96,dmal96,male,25,TRUE,social,0.7675,62,3,3,2,3,1,2,3,Q1,Low AQ
1061,dmal96,dmal96,male,25,FALSE,nonsocial,4.4674,48,2,5,1,3,1,2,3,Q1,Low AQ
1062,dmal96,dmal96,male,25,TRUE,nonsocial,1.8393,30,2,1,1,3,1,2,3,Q1,Low AQ
1063,dmal96,dmal96,male,25,TRUE,nonsocial,1.4777,46,2,5,1,3,1,2,3,Q1,Low AQ
1064,dmal96,dmal96,male,25,TRUE,nonsocial,1.1327,47,2,5,1,3,1,2,3,Q1,Low AQ
1065,dmal96,dmal96,male,25,TRUE,social,1.6211,52,3,0,2,3,1,2,3,Q1,Low AQ
1066,dmal96,dmal96,male,25,TRUE,social,1.0822,49,3,0,2,3,1,2,3,Q1,Low AQ
1067,dmal96,dmal96,male,25,TRUE,social,1.0319,50,3,0,2,3,1,2,3,Q1,Low AQ
1068,dmal96,dmal96,male,25,FALSE,social,1.1131,51,3,0,2,3,1,2,3,Q1,Low AQ
1069,dmal96,dmal96,male,25,TRUE,nonsocial,2.0416,28,2,0,1,3,1,2,3,Q1,Low AQ
1070,dmal96,dmal96,male,25,TRUE,nonsocial,2.0549,29,2,1,1,3,1,2,3,Q1,Low AQ
1071,dmal96,dmal96,male,25,TRUE,social,1.0497,58,3,2,2,3,1,2,3,Q1,Low AQ
1072,dmal96,dmal96,male,25,TRUE,social,1.607,59,3,2,2,3,1,2,3,Q1,Low AQ
1073,dmal96,dmal96,male,25,FALSE,social,1.7543,60,3,2,2,3,1,2,3,Q1,Low AQ
1074,dmal96,dmal96,male,25,TRUE,social,2.7297,19,1,4,1,3,1,2,3,Q1,Low AQ
1075,dmal96,dmal96,male,25,TRUE,social,0.6918,20,1,4,1,3,1,2,3,Q1,Low AQ
1076,dmal96,dmal96,male,25,FALSE,social,1.2915,21,1,5,1,3,1,2,3,Q1,Low AQ
1077,dmal96,dmal96,male,25,TRUE,social,1.2581,22,1,5,1,3,1,2,3,Q1,Low AQ
1078,dmal96,dmal96,male,25,TRUE,social,3.8641,23,1,5,1,3,1,2,3,Q1,Low AQ
1079,dmal96,dmal96,male,25,TRUE,social,1.6999,53,3,1,2,3,1,2,3,Q1,Low AQ
1080,dmal96,dmal96,male,25,TRUE,social,0.8349,54,3,1,2,3,1,2,3,Q1,Low AQ
1081,dmal96,dmal96,male,25,FALSE,social,2.1698,55,3,1,2,3,1,2,3,Q1,Low AQ
1082,dmal96,dmal96,male,25,TRUE,social,0.544,56,3,1,2,3,1,2,3,Q1,Low AQ
1083,dmal96,dmal96,male,25,TRUE,social,1.4094,57,3,2,2,3,1,2,3,Q1,Low AQ
1084,dmal96,dmal96,male,25,TRUE,social,1.5361,69,3,5,2,3,1,2,3,Q1,Low AQ
1085,dmal96,dmal96,male,25,TRUE,social,0.6715,70,3,5,2,3,1,2,3,Q1,Low AQ
1086,dmal96,dmal96,male,25,TRUE,nonsocial,1.1453,31,2,1,1,3,1,2,3,Q1,Low AQ
1087,dmal96,dmal96,male,25,TRUE,nonsocial,0.8325,32,2,1,1,3,1,2,3,Q1,Low AQ
1088,dmal96,dmal96,male,25,FALSE,nonsocial,1.2476,33,2,2,1,3,1,2,3,Q1,Low AQ
1089,dmal96,dmal96,male,25,TRUE,nonsocial,0.7995,34,2,2,1,3,1,2,3,Q1,Low AQ
1090,dmal96,dmal96,male,25,FALSE,nonsocial,0.7606,35,2,2,1,3,1,2,3,Q1,Low AQ
1091,dmal96,dmal96,male,25,TRUE,nonsocial,1.0567,36,2,2,1,3,1,2,3,Q1,Low AQ
1092,dmal96,dmal96,male,25,TRUE,social,1.2563,24,1,5,1,3,1,2,3,Q1,Low AQ
1093,dmal96,dmal96,male,25,TRUE,nonsocial,1.5657,25,2,0,1,3,1,2,3,Q1,Low AQ
1094,dmal96,dmal96,male,25,TRUE,nonsocial,1.1122,26,2,0,1,3,1,2,3,Q1,Low AQ
1095,dmal96,dmal96,male,25,TRUE,nonsocial,1.3908,27,2,0,1,3,1,2,3,Q1,Low AQ
1096,dmal96,dmal96,male,25,TRUE,social,0.6396,68,3,4,2,3,1,2,3,Q1,Low AQ
1097,dmal96,dmal96,male,25,TRUE,nonsocial,2.379,44,2,4,1,3,1,2,3,Q1,Low AQ
1098,dmal96,dmal96,male,25,TRUE,nonsocial,1.5906,45,2,5,1,3,1,2,3,Q1,Low AQ
1099,dmal96,dmal96,male,25,TRUE,social,1.0921,4,1,0,1,3,1,2,3,Q1,Low AQ
1100,dmal96,dmal96,male,25,TRUE,social,1.8075,5,1,1,1,3,1,2,3,Q1,Low AQ
1101,dmal96,dmal96,male,25,TRUE,social,1.5467,6,1,1,1,3,1,2,3,Q1,Low AQ
1102,dmal96,dmal96,male,25,FALSE,social,1.5139,7,1,1,1,3,1,2,3,Q1,Low AQ
1103,dmal96,dmal96,male,25,FALSE,social,2.4742,8,1,1,1,3,1,2,3,Q1,Low AQ
1104,dmal96,dmal96,male,25,TRUE,social,1.9273,9,1,2,1,3,1,2,3,Q1,Low AQ
1105,dmal96,dmal96,male,25,TRUE,social,0.862,10,1,2,1,3,1,2,3,Q1,Low AQ
1106,dmal96,dmal96,male,25,TRUE,social,2.237,11,1,2,1,3,1,2,3,Q1,Low AQ
1107,dmal96,dmal96,male,25,TRUE,social,0.7849,12,1,2,1,3,1,2,3,Q1,Low AQ
1108,dmal96,dmal96,male,25,TRUE,social,3.4786,13,1,3,1,3,1,2,3,Q1,Low AQ
1109,dmal96,dmal96,male,25,TRUE,social,0.7556,14,1,3,1,3,1,2,3,Q1,Low AQ
1110,dmal96,dmal96,male,25,TRUE,social,3.1813,15,1,3,1,3,1,2,3,Q1,Low AQ
1111,dmal96,dmal96,male,25,TRUE,social,0.6273,16,1,3,1,3,1,2,3,Q1,Low AQ
1112,dmal96,dmal96,male,25,TRUE,social,1.6328,17,1,4,1,3,1,2,3,Q1,Low AQ
1113,dmal96,dmal96,male,25,TRUE,social,3.6355,18,1,4,1,3,1,2,3,Q1,Low AQ
1114,dmal96,dmal96,male,25,TRUE,nonsocial,0.4572,96,4,5,2,3,1,2,3,Q1,Low AQ
1115,dmal96,dmal96,male,25,TRUE,social,0.8305,72,3,5,2,3,1,2,3,Q1,Low AQ
1116,dmal96,dmal96,male,25,TRUE,nonsocial,1.6042,73,4,0,2,3,1,2,3,Q1,Low AQ
1117,dmal96,dmal96,male,25,FALSE,nonsocial,0.699,74,4,0,2,3,1,2,3,Q1,Low AQ
1118,dmal96,dmal96,male,25,TRUE,nonsocial,2.3584,75,4,0,2,3,1,2,3,Q1,Low AQ
1119,dmal96,dmal96,male,25,TRUE,nonsocial,1.6245,76,4,0,2,3,1,2,3,Q1,Low AQ
1120,dmal96,dmal96,male,25,TRUE,social,2.144,65,3,4,2,3,1,2,3,Q1,Low AQ
1121,dmal96,dmal96,male,25,TRUE,social,2.1819,66,3,4,2,3,1,2,3,Q1,Low AQ
1122,dmal96,dmal96,male,25,TRUE,social,1.7497,67,3,4,2,3,1,2,3,Q1,Low AQ
1123,dmal96,dmal96,male,25,FALSE,nonsocial,0.5382,40,2,3,1,3,1,2,3,Q1,Low AQ
1124,dmal96,dmal96,male,25,TRUE,nonsocial,4.4664,43,2,4,1,3,1,2,3,Q1,Low AQ
1125,dmal96,dmal96,male,25,TRUE,social,4.4069,1,1,0,1,3,1,2,3,Q1,Low AQ
1126,dmal96,dmal96,male,25,TRUE,social,0.9358,2,1,0,1,3,1,2,3,Q1,Low AQ
1127,dmal96,dmal96,male,25,TRUE,social,1.9362,71,3,5,2,3,1,2,3,Q1,Low AQ
1128,dmal96,dmal96,male,25,TRUE,nonsocial,0.6748,83,4,2,2,3,1,2,3,Q1,Low AQ
1129,dmal96,dmal96,male,25,TRUE,nonsocial,0.6598,84,4,2,2,3,1,2,3,Q1,Low AQ
1130,dmal96,dmal96,male,25,TRUE,nonsocial,1.0281,85,4,3,2,3,1,2,3,Q1,Low AQ
1131,dmal96,dmal96,male,25,TRUE,nonsocial,0.6469,86,4,3,2,3,1,2,3,Q1,Low AQ
1132,dmal96,dmal96,male,25,TRUE,nonsocial,0.7103,87,4,3,2,3,1,2,3,Q1,Low AQ
1133,dmal96,dmal96,male,25,TRUE,nonsocial,2.2275,37,2,3,1,3,1,2,3,Q1,Low AQ
1134,dmal96,dmal96,male,25,TRUE,nonsocial,0.5259,38,2,3,1,3,1,2,3,Q1,Low AQ
1135,dmal96,dmal96,male,25,TRUE,nonsocial,0.9159,39,2,3,1,3,1,2,3,Q1,Low AQ
1136,dmal96,dmal96,male,25,TRUE,nonsocial,0.7378,91,4,4,2,3,1,2,3,Q1,Low AQ
1137,dmal96,dmal96,male,25,TRUE,nonsocial,0.3576,92,4,4,2,3,1,2,3,Q1,Low AQ
1138,dmal96,dmal96,male,25,TRUE,nonsocial,1.2398,93,4,5,2,3,1,2,3,Q1,Low AQ
1139,dmal96,dmal96,male,25,TRUE,nonsocial,0.7389,94,4,5,2,3,1,2,3,Q1,Low AQ
1140,dmal96,dmal96,male,25,TRUE,social,3.0628,3,1,0,1,3,1,2,3,Q1,Low AQ
1141,dmal96,dmal96,male,25,TRUE,nonsocial,0.6811,82,4,2,2,3,1,2,3,Q1,Low AQ
1142,dmal96,dmal96,male,25,TRUE,nonsocial,0.7847,88,4,3,2,3,1,2,3,Q1,Low AQ
1143,dmal96,dmal96,male,25,TRUE,nonsocial,1.2034,89,4,4,2,3,1,2,3,Q1,Low AQ
1144,dmal96,dmal96,male,25,TRUE,nonsocial,0.5321,90,4,4,2,3,1,2,3,Q1,Low AQ
1145,dmal96,dmal96,male,25,TRUE,nonsocial,1.3001,79,4,1,2,3,1,2,3,Q1,Low AQ
1146,dmal96,dmal96,male,25,TRUE,nonsocial,1.005,80,4,1,2,3,1,2,3,Q1,Low AQ
1147,dmal96,dmal96,male,25,TRUE,nonsocial,2.6655,41,2,4,1,3,1,2,3,Q1,Low AQ
1148,dmal96,dmal96,male,25,TRUE,nonsocial,0.8426,42,2,4,1,3,1,2,3,Q1,Low AQ
1149,dmal96,dmal96,male,25,TRUE,nonsocial,1.3627,95,4,5,2,3,1,2,3,Q1,Low AQ
1150,dmal96,dmal96,male,25,TRUE,nonsocial,2.2957,81,4,2,2,3,1,2,3,Q1,Low AQ
1151,dmal96,dmal96,male,25,TRUE,nonsocial,1.3333,77,4,1,2,3,1,2,3,Q1,Low AQ
1152,dmal96,dmal96,male,25,TRUE,nonsocial,1.784,78,4,1,2,3,1,2,3,Q1,Low AQ
1153,elgr00,elgr00,female,21,TRUE,nonsocial,1.362,84,4,2,2,4,0,2,2,Q1,Low AQ
1154,elgr00,elgr00,female,21,TRUE,nonsocial,1.1739,83,4,2,2,4,0,2,2,Q1,Low AQ
1155,elgr00,elgr00,female,21,TRUE,nonsocial,0.7067,42,2,4,1,4,0,2,2,Q1,Low AQ
1156,elgr00,elgr00,female,21,TRUE,nonsocial,0.6765,85,4,3,2,4,0,2,2,Q1,Low AQ
1157,elgr00,elgr00,female,21,TRUE,nonsocial,1.5739,86,4,3,2,4,0,2,2,Q1,Low AQ
1158,elgr00,elgr00,female,21,TRUE,nonsocial,0.6682,82,4,2,2,4,0,2,2,Q1,Low AQ
1159,elgr00,elgr00,female,21,TRUE,nonsocial,0.6606,46,2,5,1,4,0,2,2,Q1,Low AQ
1160,elgr00,elgr00,female,21,TRUE,nonsocial,2.2119,43,2,4,1,4,0,2,2,Q1,Low AQ
1161,elgr00,elgr00,female,21,TRUE,nonsocial,1.1376,44,2,4,1,4,0,2,2,Q1,Low AQ
1162,elgr00,elgr00,female,21,TRUE,nonsocial,0.8121,45,2,5,1,4,0,2,2,Q1,Low AQ
1163,elgr00,elgr00,female,21,FALSE,social,0.5925,12,1,2,1,4,0,2,2,Q1,Low AQ
1164,elgr00,elgr00,female,21,TRUE,social,2.0549,13,1,3,1,4,0,2,2,Q1,Low AQ
1165,elgr00,elgr00,female,21,FALSE,social,1.075,14,1,3,1,4,0,2,2,Q1,Low AQ
1166,elgr00,elgr00,female,21,FALSE,social,0.8579,11,1,2,1,4,0,2,2,Q1,Low AQ
1167,elgr00,elgr00,female,21,TRUE,nonsocial,0.6985,81,4,2,2,4,0,2,2,Q1,Low AQ
1168,elgr00,elgr00,female,21,FALSE,social,0.6345,16,1,3,1,4,0,2,2,Q1,Low AQ
1169,elgr00,elgr00,female,21,TRUE,social,1.8793,17,1,4,1,4,0,2,2,Q1,Low AQ
1170,elgr00,elgr00,female,21,FALSE,social,1.1833,18,1,4,1,4,0,2,2,Q1,Low AQ
1171,elgr00,elgr00,female,21,FALSE,social,0.7538,19,1,4,1,4,0,2,2,Q1,Low AQ
1172,elgr00,elgr00,female,21,FALSE,social,0.9103,20,1,4,1,4,0,2,2,Q1,Low AQ
1173,elgr00,elgr00,female,21,TRUE,nonsocial,1.1674,47,2,5,1,4,0,2,2,Q1,Low AQ
1174,elgr00,elgr00,female,21,TRUE,nonsocial,2.2919,48,2,5,1,4,0,2,2,Q1,Low AQ
1175,elgr00,elgr00,female,21,TRUE,social,1.5354,49,3,0,2,4,0,2,2,Q1,Low AQ
1176,elgr00,elgr00,female,21,TRUE,social,0.843,50,3,0,2,4,0,2,2,Q1,Low AQ
1177,elgr00,elgr00,female,21,TRUE,social,0.5063,51,3,0,2,4,0,2,2,Q1,Low AQ
1178,elgr00,elgr00,female,21,TRUE,social,0.6117,52,3,0,2,4,0,2,2,Q1,Low AQ
1179,elgr00,elgr00,female,21,TRUE,social,1.3435,53,3,1,2,4,0,2,2,Q1,Low AQ
1180,elgr00,elgr00,female,21,FALSE,social,0.5647,15,1,3,1,4,0,2,2,Q1,Low AQ
1181,elgr00,elgr00,female,21,TRUE,social,0.9086,68,3,4,2,4,0,2,2,Q1,Low AQ
1182,elgr00,elgr00,female,21,TRUE,social,0.8919,69,3,5,2,4,0,2,2,Q1,Low AQ
1183,elgr00,elgr00,female,21,TRUE,social,0.8691,70,3,5,2,4,0,2,2,Q1,Low AQ
1184,elgr00,elgr00,female,21,TRUE,social,0.7945,71,3,5,2,4,0,2,2,Q1,Low AQ
1185,elgr00,elgr00,female,21,TRUE,social,0.6709,72,3,5,2,4,0,2,2,Q1,Low AQ
1186,elgr00,elgr00,female,21,TRUE,nonsocial,1.2825,73,4,0,2,4,0,2,2,Q1,Low AQ
1187,elgr00,elgr00,female,21,FALSE,nonsocial,0.7452,74,4,0,2,4,0,2,2,Q1,Low AQ
1188,elgr00,elgr00,female,21,FALSE,nonsocial,0.6252,75,4,0,2,4,0,2,2,Q1,Low AQ
1189,elgr00,elgr00,female,21,TRUE,nonsocial,1.0196,76,4,0,2,4,0,2,2,Q1,Low AQ
1190,elgr00,elgr00,female,21,TRUE,nonsocial,0.9138,77,4,1,2,4,0,2,2,Q1,Low AQ
1191,elgr00,elgr00,female,21,TRUE,nonsocial,0.8494,78,4,1,2,4,0,2,2,Q1,Low AQ
1192,elgr00,elgr00,female,21,TRUE,nonsocial,0.7675,79,4,1,2,4,0,2,2,Q1,Low AQ
1193,elgr00,elgr00,female,21,TRUE,nonsocial,0.8684,80,4,1,2,4,0,2,2,Q1,Low AQ
1194,elgr00,elgr00,female,21,FALSE,nonsocial,0.9305,41,2,4,1,4,0,2,2,Q1,Low AQ
1195,elgr00,elgr00,female,21,FALSE,social,0.7724,2,1,0,1,4,0,2,2,Q1,Low AQ
1196,elgr00,elgr00,female,21,FALSE,social,0.8973,3,1,0,1,4,0,2,2,Q1,Low AQ
1197,elgr00,elgr00,female,21,FALSE,social,0.8089,4,1,0,1,4,0,2,2,Q1,Low AQ
1198,elgr00,elgr00,female,21,TRUE,social,4.4799,5,1,1,1,4,0,2,2,Q1,Low AQ
1199,elgr00,elgr00,female,21,FALSE,social,0.6961,6,1,1,1,4,0,2,2,Q1,Low AQ
1200,elgr00,elgr00,female,21,FALSE,social,0.4831,7,1,1,1,4,0,2,2,Q1,Low AQ
1201,elgr00,elgr00,female,21,TRUE,nonsocial,0.6216,87,4,3,2,4,0,2,2,Q1,Low AQ
1202,elgr00,elgr00,female,21,TRUE,nonsocial,1.0105,88,4,3,2,4,0,2,2,Q1,Low AQ
1203,elgr00,elgr00,female,21,TRUE,nonsocial,1.0476,89,4,4,2,4,0,2,2,Q1,Low AQ
1204,elgr00,elgr00,female,21,TRUE,nonsocial,1.0888,90,4,4,2,4,0,2,2,Q1,Low AQ
1205,elgr00,elgr00,female,21,TRUE,nonsocial,0.6833,91,4,4,2,4,0,2,2,Q1,Low AQ
1206,elgr00,elgr00,female,21,TRUE,nonsocial,0.8378,92,4,4,2,4,0,2,2,Q1,Low AQ
1207,elgr00,elgr00,female,21,TRUE,social,0.9714,54,3,1,2,4,0,2,2,Q1,Low AQ
1208,elgr00,elgr00,female,21,TRUE,social,1.2046,55,3,1,2,4,0,2,2,Q1,Low AQ
1209,elgr00,elgr00,female,21,TRUE,social,0.7002,56,3,1,2,4,0,2,2,Q1,Low AQ
1210,elgr00,elgr00,female,21,FALSE,social,0.9132,57,3,2,2,4,0,2,2,Q1,Low AQ
1211,elgr00,elgr00,female,21,TRUE,social,0.7328,58,3,2,2,4,0,2,2,Q1,Low AQ
1212,elgr00,elgr00,female,21,TRUE,social,0.7833,59,3,2,2,4,0,2,2,Q1,Low AQ
1213,elgr00,elgr00,female,21,FALSE,social,1.4804,21,1,5,1,4,0,2,2,Q1,Low AQ
1214,elgr00,elgr00,female,21,TRUE,social,1.1773,22,1,5,1,4,0,2,2,Q1,Low AQ
1215,elgr00,elgr00,female,21,TRUE,social,1.1011,23,1,5,1,4,0,2,2,Q1,Low AQ
1216,elgr00,elgr00,female,21,TRUE,social,2.2315,24,1,5,1,4,0,2,2,Q1,Low AQ
1217,elgr00,elgr00,female,21,TRUE,nonsocial,3.7754,25,2,0,1,4,0,2,2,Q1,Low AQ
1218,elgr00,elgr00,female,21,TRUE,social,0.8177,65,3,4,2,4,0,2,2,Q1,Low AQ
1219,elgr00,elgr00,female,21,TRUE,social,1.3506,66,3,4,2,4,0,2,2,Q1,Low AQ
1220,elgr00,elgr00,female,21,TRUE,social,1.1848,67,3,4,2,4,0,2,2,Q1,Low AQ
1221,elgr00,elgr00,female,21,TRUE,nonsocial,0.99,28,2,0,1,4,0,2,2,Q1,Low AQ
1222,elgr00,elgr00,female,21,TRUE,nonsocial,1.0957,29,2,1,1,4,0,2,2,Q1,Low AQ
1223,elgr00,elgr00,female,21,TRUE,nonsocial,0.8523,30,2,1,1,4,0,2,2,Q1,Low AQ
1224,elgr00,elgr00,female,21,TRUE,nonsocial,1.2164,31,2,1,1,4,0,2,2,Q1,Low AQ
1225,elgr00,elgr00,female,21,TRUE,nonsocial,0.943,32,2,1,1,4,0,2,2,Q1,Low AQ
1226,elgr00,elgr00,female,21,TRUE,nonsocial,0.9927,33,2,2,1,4,0,2,2,Q1,Low AQ
1227,elgr00,elgr00,female,21,TRUE,nonsocial,0.736,34,2,2,1,4,0,2,2,Q1,Low AQ
1228,elgr00,elgr00,female,21,TRUE,nonsocial,0.95,35,2,2,1,4,0,2,2,Q1,Low AQ
1229,elgr00,elgr00,female,21,TRUE,nonsocial,1.7007,36,2,2,1,4,0,2,2,Q1,Low AQ
1230,elgr00,elgr00,female,21,TRUE,nonsocial,0.7636,37,2,3,1,4,0,2,2,Q1,Low AQ
1231,elgr00,elgr00,female,21,TRUE,nonsocial,0.5921,38,2,3,1,4,0,2,2,Q1,Low AQ
1232,elgr00,elgr00,female,21,TRUE,nonsocial,0.5915,39,2,3,1,4,0,2,2,Q1,Low AQ
1233,elgr00,elgr00,female,21,TRUE,nonsocial,0.8845,40,2,3,1,4,0,2,2,Q1,Low AQ
1234,elgr00,elgr00,female,21,FALSE,social,1.5953,1,1,0,1,4,0,2,2,Q1,Low AQ
1235,elgr00,elgr00,female,21,TRUE,nonsocial,0.9181,93,4,5,2,4,0,2,2,Q1,Low AQ
1236,elgr00,elgr00,female,21,TRUE,nonsocial,1.242,94,4,5,2,4,0,2,2,Q1,Low AQ
1237,elgr00,elgr00,female,21,TRUE,nonsocial,0.8075,95,4,5,2,4,0,2,2,Q1,Low AQ
1238,elgr00,elgr00,female,21,TRUE,nonsocial,0.6984,96,4,5,2,4,0,2,2,Q1,Low AQ
1239,elgr00,elgr00,female,21,FALSE,social,2.5574,10,1,2,1,4,0,2,2,Q1,Low AQ
1240,elgr00,elgr00,female,21,TRUE,social,0.8415,61,3,3,2,4,0,2,2,Q1,Low AQ
1241,elgr00,elgr00,female,21,TRUE,social,1.3286,8,1,1,1,4,0,2,2,Q1,Low AQ
1242,elgr00,elgr00,female,21,TRUE,social,4.3307,9,1,2,1,4,0,2,2,Q1,Low AQ
1243,elgr00,elgr00,female,21,FALSE,nonsocial,0.8741,26,2,0,1,4,0,2,2,Q1,Low AQ
1244,elgr00,elgr00,female,21,FALSE,nonsocial,1.3071,27,2,0,1,4,0,2,2,Q1,Low AQ
1245,elgr00,elgr00,female,21,TRUE,social,0.9773,62,3,3,2,4,0,2,2,Q1,Low AQ
1246,elgr00,elgr00,female,21,TRUE,social,1.1903,64,3,3,2,4,0,2,2,Q1,Low AQ
1247,elgr00,elgr00,female,21,TRUE,social,0.7372,60,3,2,2,4,0,2,2,Q1,Low AQ
1248,elgr00,elgr00,female,21,TRUE,social,1.3667,63,3,3,2,4,0,2,2,Q1,Low AQ
1249,elmi00,elmi00,female,21,TRUE,nonsocial,1.5876,70,3,5,2,1,0,1,1,Q1,Low AQ
1250,elmi00,elmi00,female,21,TRUE,nonsocial,1.6452,67,3,4,2,1,0,1,1,Q1,Low AQ
1251,elmi00,elmi00,female,21,FALSE,nonsocial,0.7058,68,3,4,2,1,0,1,1,Q1,Low AQ
1252,elmi00,elmi00,female,21,TRUE,nonsocial,2.9012,69,3,5,2,1,0,1,1,Q1,Low AQ
1253,elmi00,elmi00,female,21,FALSE,social,1.115,44,2,4,1,1,0,1,1,Q1,Low AQ
1254,elmi00,elmi00,female,21,FALSE,social,1.1174,45,2,5,1,1,0,1,1,Q1,Low AQ
1255,elmi00,elmi00,female,21,FALSE,social,1.0932,46,2,5,1,1,0,1,1,Q1,Low AQ
1256,elmi00,elmi00,female,21,TRUE,nonsocial,0.8615,71,3,5,2,1,0,1,1,Q1,Low AQ
1257,elmi00,elmi00,female,21,TRUE,social,2.325,35,2,2,1,1,0,1,1,Q1,Low AQ
1258,elmi00,elmi00,female,21,TRUE,social,2.0392,36,2,2,1,1,0,1,1,Q1,Low AQ
1259,elmi00,elmi00,female,21,TRUE,social,1.6465,37,2,3,1,1,0,1,1,Q1,Low AQ
1260,elmi00,elmi00,female,21,FALSE,social,1.1439,43,2,4,1,1,0,1,1,Q1,Low AQ
1261,elmi00,elmi00,female,21,TRUE,nonsocial,0.6899,66,3,4,2,1,0,1,1,Q1,Low AQ
1262,elmi00,elmi00,female,21,FALSE,social,1.2625,94,4,5,2,1,0,1,1,Q1,Low AQ
1263,elmi00,elmi00,female,21,FALSE,social,0.3688,95,4,5,2,1,0,1,1,Q1,Low AQ
1264,elmi00,elmi00,female,21,TRUE,social,2.6084,96,4,5,2,1,0,1,1,Q1,Low AQ
1265,elmi00,elmi00,female,21,FALSE,nonsocial,1.602,56,3,1,2,1,0,1,1,Q1,Low AQ
1266,elmi00,elmi00,female,21,FALSE,nonsocial,2.6423,57,3,2,2,1,0,1,1,Q1,Low AQ
1267,elmi00,elmi00,female,21,FALSE,nonsocial,1.6188,58,3,2,2,1,0,1,1,Q1,Low AQ
1268,elmi00,elmi00,female,21,TRUE,nonsocial,0.4575,59,3,2,2,1,0,1,1,Q1,Low AQ
1269,elmi00,elmi00,female,21,TRUE,nonsocial,1.8339,60,3,2,2,1,0,1,1,Q1,Low AQ
1270,elmi00,elmi00,female,21,TRUE,nonsocial,2.1344,61,3,3,2,1,0,1,1,Q1,Low AQ
1271,elmi00,elmi00,female,21,FALSE,nonsocial,1.8368,62,3,3,2,1,0,1,1,Q1,Low AQ
1272,elmi00,elmi00,female,21,TRUE,nonsocial,1.5119,63,3,3,2,1,0,1,1,Q1,Low AQ
1273,elmi00,elmi00,female,21,TRUE,social,2.7401,38,2,3,1,1,0,1,1,Q1,Low AQ
1274,elmi00,elmi00,female,21,TRUE,nonsocial,1.2194,65,3,4,2,1,0,1,1,Q1,Low AQ
1275,elmi00,elmi00,female,21,TRUE,social,1.6311,25,2,0,1,1,0,1,1,Q1,Low AQ
1276,elmi00,elmi00,female,21,FALSE,social,1.9275,26,2,0,1,1,0,1,1,Q1,Low AQ
1277,elmi00,elmi00,female,21,FALSE,social,3.4087,27,2,0,1,1,0,1,1,Q1,Low AQ
1278,elmi00,elmi00,female,21,TRUE,social,2.1587,28,2,0,1,1,0,1,1,Q1,Low AQ
1279,elmi00,elmi00,female,21,TRUE,social,2.569,29,2,1,1,1,0,1,1,Q1,Low AQ
1280,elmi00,elmi00,female,21,TRUE,social,1.026,30,2,1,1,1,0,1,1,Q1,Low AQ
1281,elmi00,elmi00,female,21,TRUE,nonsocial,0.5648,72,3,5,2,1,0,1,1,Q1,Low AQ
1282,elmi00,elmi00,female,21,TRUE,social,1.4958,73,4,0,2,1,0,1,1,Q1,Low AQ
1283,elmi00,elmi00,female,21,FALSE,social,2.5455,74,4,0,2,1,0,1,1,Q1,Low AQ
1284,elmi00,elmi00,female,21,FALSE,social,1.4272,75,4,0,2,1,0,1,1,Q1,Low AQ
1285,elmi00,elmi00,female,21,TRUE,social,1.4654,76,4,0,2,1,0,1,1,Q1,Low AQ
1286,elmi00,elmi00,female,21,FALSE,nonsocial,0.6632,64,3,3,2,1,0,1,1,Q1,Low AQ
1287,elmi00,elmi00,female,21,TRUE,social,0.5523,78,4,1,2,1,0,1,1,Q1,Low AQ
1288,elmi00,elmi00,female,21,FALSE,social,3.5967,39,2,3,1,1,0,1,1,Q1,Low AQ
1289,elmi00,elmi00,female,21,FALSE,social,3.543,40,2,3,1,1,0,1,1,Q1,Low AQ
1290,elmi00,elmi00,female,21,FALSE,social,1.5655,41,2,4,1,1,0,1,1,Q1,Low AQ
1291,elmi00,elmi00,female,21,FALSE,social,2.7289,42,2,4,1,1,0,1,1,Q1,Low AQ
1292,elmi00,elmi00,female,21,TRUE,social,0.7578,83,4,2,2,1,0,1,1,Q1,Low AQ
