left,right,stim,ParticipantAnswer,response_training.keys,response_training.corr,response_training.rt,training_social.thisRepN,training_social.thisTrialN,training_social.thisN,training_social.thisIndex,training_social.ran,Stim,filename_neutral,filename_feedback_happy,filename_feedback_angry,CorrCatTrain,participant,session,date,expName,psychopyVersion,OS,frameRate,training_nonsocial.thisRepN,training_nonsocial.thisTrialN,training_nonsocial.thisN,training_nonsocial.thisIndex,training_nonsocial.ran,CorrCat,CorrectAns,prob_fb.thisRepN,prob_fb.thisTrialN,prob_fb.thisN,prob_fb.thisIndex,prob_fb.ran,CorrCatProb,response_training_2.keys,response_training_2.corr,response_training_2.rt,Congr/Incongr,Reward,BlockType,trials.thisRepN,trials.thisTrialN,trials.thisN,trials.thisIndex,trials.ran,cycles.thisRepN,cycles.thisTrialN,cycles.thisN,cycles.thisIndex,cycles.ran,blocks.thisRepN,blocks.thisTrialN,blocks.thisN,blocks.thisIndex,blocks.ran
B,A,91,A,right,0,1.9794,0,0,0,2,1,91,Stimuli/neutral/Still.jpg,Stimuli/social/happy/F01-Happy Women.mp4,Stimuli/social/angry/F04-Angry Women.mp4,B,chga99,001,2022-04-27_12h38.19.246,RALT_PLD,2020.2.10,Win32,60,,,,,,,,,,,,,,,,,,,,,,,,,,,,,,,,,,
B,A,38,,,0,,0,1,1,3,1,38,Stimuli/neutral/Still.jpg,Stimuli/social/happy/M02-Happy Man.mp4,Stimuli/social/angry/M06-Angry Man.mp4,B,chga99,001,2022-04-27_12h38.19.246,RALT_PLD,2020.2.10,Win32,60,,,,,,,,,,,,,,,,,,,,,,,,,,,,,,,,,,
B,A,99,A,right,0,1.9909,0,2,2,0,1,99,Stimuli/neutral/Still.jpg,Stimuli/social/happy/F01-Happy Women.mp4,Stimuli/social/angry/F04-Angry Women.mp4,A,chga99,001,2022-04-27_12h38.19.246,RALT_PLD,2020.2.10,Win32,60,,,,,,,,,,,,,,,,,,,,,,,,,,,,,,,,,,
B,A,38,B,left,0,0.9877,0,3,3,1,1,38,Stimuli/neutral/Still.jpg,Stimuli/social/happy/M02-Happy Man.mp4,Stimuli/social/angry/M06-Angry Man.mp4,A,chga99,001,2022-04-27_12h38.19.246,RALT_PLD,2020.2.10,Win32,60,,,,,,,,,,,,,,,,,,,,,,,,,,,,,,,,,,
B,A,39,B,left,0,2.0961,,,,,,39,Stimuli/neutral/Still.jpg,Stimuli/nonsocial/Right Tick.mp4,Stimuli/nonsocial/Wrong Tick.mp4,B,chga99,001,2022-04-27_12h38.19.246,RALT_PLD,2020.2.10,Win32,60,0,0,0,3,1,,,,,,,,,,,,,,,,,,,,,,,,,,,,,
B,A,53,A,right,0,1.9544,,,,,,53,Stimuli/neutral/Still.jpg,Stimuli/nonsocial/Right Tick.mp4,Stimuli/nonsocial/Wrong Tick.mp4,A,chga99,001,2022-04-27_12h38.19.246,RALT_PLD,2020.2.10,Win32,60,0,1,1,1,1,,,,,,,,,,,,,,,,,,,,,,,,,,,,,
B,A,43,A,right,0,1.4352,,,,,,43,Stimuli/neutral/Still.jpg,Stimuli/nonsocial/Right Tick.mp4,Stimuli/nonsocial/Wrong Tick.mp4,A,chga99,001,2022-04-27_12h38.19.246,RALT_PLD,2020.2.10,Win32,60,0,2,2,2,1,,,,,,,,,,,,,,,,,,,,,,,,,,,,,
B,A,98,A,right,0,2.6103,,,,,,98,Stimuli/neutral/Still.jpg,Stimuli/nonsocial/Right Tick.mp4,Stimuli/nonsocial/Wrong Tick.mp4,B,chga99,001,2022-04-27_12h38.19.246,RALT_PLD,2020.2.10,Win32,60,0,3,3,0,1,,,,,,,,,,,,,,,,,,,,,,,,,,,,,
B,A,91,A,right,0,1.579,,,,,,91,Stimuli/neutral/Still.jpg,Stimuli/social/happy/F01-Happy Women.mp4,Stimuli/social/angry/F04-Angry Women.mp4,,chga99,001,2022-04-27_12h38.19.246,RALT_PLD,2020.2.10,Win32,60,,,,,,"[[""B"",""A"",""A"",""B""],[""B"",""A"",""A"",""B""]]",No,0,0,0,2,1,B,,,,,,,,,,,,,,,,,,,,,
B,A,38,A,right,0,1.4043,,,,,,38,Stimuli/neutral/Still.jpg,Stimuli/social/happy/M02-Happy Man.mp4,Stimuli/social/angry/M06-Angry Man.mp4,,chga99,001,2022-04-27_12h38.19.246,RALT_PLD,2020.2.10,Win32,60,,,,,,"[[""B"",""A"",""A"",""B""],[""B"",""A"",""A"",""B""]]",Yes,0,1,1,1,1,A,,,,,,,,,,,,,,,,,,,,,
B,A,38,B,left,0,2.1077,,,,,,38,Stimuli/neutral/Still.jpg,Stimuli/social/happy/M02-Happy Man.mp4,Stimuli/social/angry/M06-Angry Man.mp4,,chga99,001,2022-04-27_12h38.19.246,RALT_PLD,2020.2.10,Win32,60,,,,,,"[[""B"",""A"",""A"",""B""],[""B"",""A"",""A"",""B""]]",Yes,0,2,2,3,1,B,,,,,,,,,,,,,,,,,,,,,
B,A,99,B,left,0,2.0362,,,,,,99,Stimuli/neutral/Still.jpg,Stimuli/social/happy/F01-Happy Women.mp4,Stimuli/social/angry/F04-Angry Women.mp4,,chga99,001,2022-04-27_12h38.19.246,RALT_PLD,2020.2.10,Win32,60,,,,,,"[[""B"",""A"",""A"",""B""],[""B"",""A"",""A"",""B""]]",No,0,3,3,0,1,A,,,,,,,,,,,,,,,,,,,,,
B,A,34,A,,,,,,,,,,,,,,chga99,001,2022-04-27_12h38.19.246,RALT_PLD,2020.2.10,Win32,60,,,,,,B,No,,,,,,,right,0,1.4501,Congruent,0,nonsocial,0,0,0,0,1,,,,,,,,,,
B,A,68,A,,,,,,,,,,,,,,chga99,001,2022-04-27_12h38.19.246,RALT_PLD,2020.2.10,Win32,60,,,,,,B,No,,,,,,,right,0,2.1993,Congruent,0,nonsocial,1,0,1,0,1,,,,,,,,,,
B,A,64,A,,,,,,,,,,,,,,chga99,001,2022-04-27_12h38.19.246,RALT_PLD,2020.2.10,Win32,60,,,,,,A,Yes,,,,,,,right,0,0.8688,Congruent,1,nonsocial,2,0,2,0,1,,,,,,,,,,
B,A,74,B,,,,,,,,,,,,,,chga99,001,2022-04-27_12h38.19.246,RALT_PLD,2020.2.10,Win32,60,,,,,,A,No,,,,,,,left,0,3.4665,Congruent,0,nonsocial,3,0,3,0,1,,,,,,,,,,
,,,,,,,,,,,,,,,,,chga99,001,2022-04-27_12h38.19.246,RALT_PLD,2020.2.10,Win32,60,,,,,,,,,,,,,,,,,,,,,,,,,0,0,0,0,1,,,,,
A,B,34,B,,,,,,,,,,,,,,chga99,001,2022-04-27_12h38.19.246,RALT_PLD,2020.2.10,Win32,60,,,,,,B,Yes,,,,,,,right,0,1.719,Congruent,1,nonsocial,0,0,0,0,1,,,,,,,,,,
A,B,68,A,,,,,,,,,,,,,,chga99,001,2022-04-27_12h38.19.246,RALT_PLD,2020.2.10,Win32,60,,,,,,B,No,,,,,,,left,0,1.7327,Congruent,0,nonsocial,1,0,1,0,1,,,,,,,,,,
A,B,74,A,,,,,,,,,,,,,,chga99,001,2022-04-27_12h38.19.246,RALT_PLD,2020.2.10,Win32,60,,,,,,A,Yes,,,,,,,left,0,3.5489,Congruent,1,nonsocial,2,0,2,0,1,,,,,,,,,,
A,B,64,B,,,,,,,,,,,,,,chga99,001,2022-04-27_12h38.19.246,RALT_PLD,2020.2.10,Win32,60,,,,,,A,No,,,,,,,right,0,3.0294,Incongruent,1,nonsocial,3,0,3,0,1,,,,,,,,,,
,,,,,,,,,,,,,,,,,chga99,001,2022-04-27_12h38.19.246,RALT_PLD,2020.2.10,Win32,60,,,,,,,,,,,,,,,,,,,,,,,,,1,0,1,0,1,,,,,
B,A,34,B,,,,,,,,,,,,,,chga99,001,2022-04-27_12h38.19.246,RALT_PLD,2020.2.10,Win32,60,,,,,,B,Yes,,,,,,,left,0,1.7211,Incongruent,0,nonsocial,0,0,0,0,1,,,,,,,,,,
B,A,68,A,,,,,,,,,,,,,,chga99,001,2022-04-27_12h38.19.246,RALT_PLD,2020.2.10,Win32,60,,,,,,B,No,,,,,,,right,0,2.7555,Congruent,0,nonsocial,1,0,1,0,1,,,,,,,,,,
B,A,74,A,,,,,,,,,,,,,,chga99,001,2022-04-27_12h38.19.246,RALT_PLD,2020.2.10,Win32,60,,,,,,A,Yes,,,,,,,right,0,1.4878,Congruent,1,nonsocial,2,0,2,0,1,,,,,,,,,,
B,A,64,B,,,,,,,,,,,,,,chga99,001,2022-04-27_12h38.19.246,RALT_PLD,2020.2.10,Win32,60,,,,,,A,No,,,,,,,left,0,2.7332,Congruent,0,nonsocial,3,0,3,0,1,,,,,,,,,,
,,,,,,,,,,,,,,,,,chga99,001,2022-04-27_12h38.19.246,RALT_PLD,2020.2.10,Win32,60,,,,,,,,,,,,,,,,,,,,,,,,,2,0,2,0,1,,,,,
B,A,74,A,,,,,,,,,,,,,,chga99,001,2022-04-27_12h38.19.246,RALT_PLD,2020.2.10,Win32,60,,,,,,A,Yes,,,,,,,right,0,1.7835,Congruent,1,nonsocial,0,0,0,0,1,,,,,,,,,,
B,A,34,B,,,,,,,,,,,,,,chga99,001,2022-04-27_12h38.19.246,RALT_PLD,2020.2.10,Win32,60,,,,,,B,Yes,,,,,,,left,0,3.2773,Congruent,1,nonsocial,1,0,1,0,1,,,,,,,,,,
B,A,64,B,,,,,,,,,,,,,,chga99,001,2022-04-27_12h38.19.246,RALT_PLD,2020.2.10,Win32,60,,,,,,A,No,,,,,,,left,0,1.3765,Congruent,0,nonsocial,2,0,2,0,1,,,,,,,,,,
B,A,68,B,,,,,,,,,,,,,,chga99,001,2022-04-27_12h38.19.246,RALT_PLD,2020.2.10,Win32,60,,,,,,B,Yes,,,,,,,left,0,2.8859,Congruent,1,nonsocial,3,0,3,0,1,,,,,,,,,,
,,,,,,,,,,,,,,,,,chga99,001,2022-04-27_12h38.19.246,RALT_PLD,2020.2.10,Win32,60,,,,,,,,,,,,,,,,,,,,,,,,,3,0,3,0,1,,,,,
A,B,74,B,,,,,,,,,,,,,,chga99,001,2022-04-27_12h38.19.246,RALT_PLD,2020.2.10,Win32,60,,,,,,A,No,,,,,,,right,0,3.1811,Congruent,0,nonsocial,0,0,0,0,1,,,,,,,,,,
A,B,68,B,,,,,,,,,,,,,,chga99,001,2022-04-27_12h38.19.246,RALT_PLD,2020.2.10,Win32,60,,,,,,B,Yes,,,,,,,right,0,3.3556,Incongruent,0,nonsocial,1,0,1,0,1,,,,,,,,,,
A,B,64,B,,,,,,,,,,,,,,chga99,001,2022-04-27_12h38.19.246,RALT_PLD,2020.2.10,Win32,60,,,,,,A,No,,,,,,,right,0,3.3198,Congruent,0,nonsocial,2,0,2,0,1,,,,,,,,,,
A,B,34,A,,,,,,,,,,,,,,chga99,001,2022-04-27_12h38.19.246,RALT_PLD,2020.2.10,Win32,60,,,,,,B,No,,,,,,,left,0,1.506,Congruent,0,nonsocial,3,0,3,0,1,,,,,,,,,,
,,,,,,,,,,,,,,,,,chga99,001,2022-04-27_12h38.19.246,RALT_PLD,2020.2.10,Win32,60,,,,,,,,,,,,,,,,,,,,,,,,,4,0,4,0,1,,,,,
A,B,68,B,,,,,,,,,,,,,,chga99,001,2022-04-27_12h38.19.246,RALT_PLD,2020.2.10,Win32,60,,,,,,B,Yes,,,,,,,right,0,2.3106,Congruent,1,nonsocial,0,0,0,0,1,,,,,,,,,,
A,B,64,A,,,,,,,,,,,,,,chga99,001,2022-04-27_12h38.19.246,RALT_PLD,2020.2.10,Win32,60,,,,,,A,Yes,,,,,,,left,0,2.5237,Incongruent,0,nonsocial,1,0,1,0,1,,,,,,,,,,
A,B,34,A,,,,,,,,,,,,,,chga99,001,2022-04-27_12h38.19.246,RALT_PLD,2020.2.10,Win32,60,,,,,,B,No,,,,,,,left,0,2.4856,Incongruent,1,nonsocial,2,0,2,0,1,,,,,,,,,,
A,B,74,B,,,,,,,,,,,,,,chga99,001,2022-04-27_12h38.19.246,RALT_PLD,2020.2.10,Win32,60,,,,,,A,No,,,,,,,right,0,1.0957,Incongruent,1,nonsocial,3,0,3,0,1,,,,,,,,,,
,,,,,,,,,,,,,,,,,chga99,001,2022-04-27_12h38.19.246,RALT_PLD,2020.2.10,Win32,60,,,,,,,,,,,,,,,,,,,,,,,,,5,0,5,0,1,,,,,
,,,,,,,,,,,,,,,,,chga99,001,2022-04-27_12h38.19.246,RALT_PLD,2020.2.10,Win32,60,,,,,,,,,,,,,,,,,,,,,,,,,,,,,,0,0,0,0,1
B,A,33,A,,,,,,,,,,,,,,chga99,001,2022-04-27_12h38.19.246,RALT_PLD,2020.2.10,Win32,60,,,,,,B,No,,,,,,,right,0,2.7858,Congruent,0,social,0,0,0,0,1,,,,,,,,,,
B,A,51,A,,,,,,,,,,,,,,chga99,001,2022-04-27_12h38.19.246,RALT_PLD,2020.2.10,Win32,60,,,,,,B,No,,,,,,,right,0,2.5748,Congruent,0,social,1,0,1,0,1,,,,,,,,,,
B,A,75,A,,,,,,,,,,,,,,chga99,001,2022-04-27_12h38.19.246,RALT_PLD,2020.2.10,Win32,60,,,,,,A,Yes,,,,,,,right,0,1.424,Congruent,1,social,2,0,2,0,1,,,,,,,,,,
B,A,73,A,,,,,,,,,,,,,,chga99,001,2022-04-27_12h38.19.246,RALT_PLD,2020.2.10,Win32,60,,,,,,A,Yes,,,,,,,right,0,2.9104,Congruent,1,social,3,0,3,0,1,,,,,,,,,,
,,,,,,,,,,,,,,,,,chga99,001,2022-04-27_12h38.19.246,RALT_PLD,2020.2.10,Win32,60,,,,,,,,,,,,,,,,,,,,,,,,,0,0,0,0,1,,,,,
A,B,33,B,,,,,,,,,,,,,,chga99,001,2022-04-27_12h38.19.246,RALT_PLD,2020.2.10,Win32,60,,,,,,B,Yes,,,,,,,right,0,1.4756,Congruent,1,social,0,0,0,0,1,,,,,,,,,,
A,B,75,A,,,,,,,,,,,,,,chga99,001,2022-04-27_12h38.19.246,RALT_PLD,2020.2.10,Win32,60,,,,,,A,Yes,,,,,,,left,0,1.1063,Congruent,1,social,1,0,1,0,1,,,,,,,,,,
A,B,73,A,,,,,,,,,,,,,,chga99,001,2022-04-27_12h38.19.246,RALT_PLD,2020.2.10,Win32,60,,,,,,A,Yes,,,,,,,left,0,0.7797,Congruent,1,social,2,0,2,0,1,,,,,,,,,,
A,B,51,B,,,,,,,,,,,,,,chga99,001,2022-04-27_12h38.19.246,RALT_PLD,2020.2.10,Win32,60,,,,,,B,Yes,,,,,,,right,0,1.1398,Congruent,1,social,3,0,3,0,1,,,,,,,,,,
,,,,,,,,,,,,,,,,,chga99,001,2022-04-27_12h38.19.246,RALT_PLD,2020.2.10,Win32,60,,,,,,,,,,,,,,,,,,,,,,,,,1,0,1,0,1,,,,,
A,B,75,A,,,,,,,,,,,,,,chga99,001,2022-04-27_12h38.19.246,RALT_PLD,2020.2.10,Win32,60,,,,,,A,Yes,,,,,,,left,0,0.8593,Incongruent,0,social,0,0,0,0,1,,,,,,,,,,
A,B,73,B,,,,,,,,,,,,,,chga99,001,2022-04-27_12h38.19.246,RALT_PLD,2020.2.10,Win32,60,,,,,,A,No,,,,,,,right,0,0.6121,Congruent,0,social,1,0,1,0,1,,,,,,,,,,
A,B,51,B,,,,,,,,,,,,,,chga99,001,2022-04-27_12h38.19.246,RALT_PLD,2020.2.10,Win32,60,,,,,,B,Yes,,,,,,,right,0,1.2113,Congruent,1,social,2,0,2,0,1,,,,,,,,,,
A,B,33,B,,,,,,,,,,,,,,chga99,001,2022-04-27_12h38.19.246,RALT_PLD,2020.2.10,Win32,60,,,,,,B,Yes,,,,,,,right,0,1.0291,Congruent,1,social,3,0,3,0,1,,,,,,,,,,
,,,,,,,,,,,,,,,,,chga99,001,2022-04-27_12h38.19.246,RALT_PLD,2020.2.10,Win32,60,,,,,,,,,,,,,,,,,,,,,,,,,2,0,2,0,1,,,,,
B,A,33,B,,,,,,,,,,,,,,chga99,001,2022-04-27_12h38.19.246,RALT_PLD,2020.2.10,Win32,60,,,,,,B,Yes,,,,,,,left,0,2.7532,Congruent,1,social,0,0,0,0,1,,,,,,,,,,
B,A,51,B,,,,,,,,,,,,,,chga99,001,2022-04-27_12h38.19.246,RALT_PLD,2020.2.10,Win32,60,,,,,,B,Yes,,,,,,,left,0,4.5244,Congruent,1,social,1,0,1,0,1,,,,,,,,,,
B,A,75,A,,,,,,,,,,,,,,chga99,001,2022-04-27_12h38.19.246,RALT_PLD,2020.2.10,Win32,60,,,,,,A,Yes,,,,,,,right,0,1.1638,Congruent,1,social,2,0,2,0,1,,,,,,,,,,
B,A,73,A,,,,,,,,,,,,,,chga99,001,2022-04-27_12h38.19.246,RALT_PLD,2020.2.10,Win32,60,,,,,,A,Yes,,,,,,,right,0,0.7242,Congruent,1,social,3,0,3,0,1,,,,,,,,,,
,,,,,,,,,,,,,,,,,chga99,001,2022-04-27_12h38.19.246,RALT_PLD,2020.2.10,Win32,60,,,,,,,,,,,,,,,,,,,,,,,,,3,0,3,0,1,,,,,
B,A,33,B,,,,,,,,,,,,,,chga99,001,2022-04-27_12h38.19.246,RALT_PLD,2020.2.10,Win32,60,,,,,,B,Yes,,,,,,,left,0,1.3966,Congruent,1,social,0,0,0,0,1,,,,,,,,,,
B,A,75,A,,,,,,,,,,,,,,chga99,001,2022-04-27_12h38.19.246,RALT_PLD,2020.2.10,Win32,60,,,,,,A,Yes,,,,,,,right,0,1.8342,Congruent,1,social,1,0,1,0,1,,,,,,,,,,
B,A,51,B,,,,,,,,,,,,,,chga99,001,2022-04-27_12h38.19.246,RALT_PLD,2020.2.10,Win32,60,,,,,,B,Yes,,,,,,,left,0,1.3125,Congruent,1,social,2,0,2,0,1,,,,,,,,,,
B,A,73,A,,,,,,,,,,,,,,chga99,001,2022-04-27_12h38.19.246,RALT_PLD,2020.2.10,Win32,60,,,,,,A,Yes,,,,,,,right,0,1.0357,Congruent,1,social,3,0,3,0,1,,,,,,,,,,
,,,,,,,,,,,,,,,,,chga99,001,2022-04-27_12h38.19.246,RALT_PLD,2020.2.10,Win32,60,,,,,,,,,,,,,,,,,,,,,,,,,4,0,4,0,1,,,,,
A,B,33,A,,,,,,,,,,,,,,chga99,001,2022-04-27_12h38.19.246,RALT_PLD,2020.2.10,Win32,60,,,,,,B,No,,,,,,,left,0,0.7267,Congruent,0,social,0,0,0,0,1,,,,,,,,,,
A,B,51,B,,,,,,,,,,,,,,chga99,001,2022-04-27_12h38.19.246,RALT_PLD,2020.2.10,Win32,60,,,,,,B,Yes,,,,,,,right,0,0.9045,Congruent,1,social,1,0,1,0,1,,,,,,,,,,
A,B,73,A,,,,,,,,,,,,,,chga99,001,2022-04-27_12h38.19.246,RALT_PLD,2020.2.10,Win32,60,,,,,,A,Yes,,,,,,,left,0,2.1652,Congruent,1,social,2,0,2,0,1,,,,,,,,,,
A,B,75,A,,,,,,,,,,,,,,chga99,001,2022-04-27_12h38.19.246,RALT_PLD,2020.2.10,Win32,60,,,,,,A,Yes,,,,,,,left,0,1.1736,Congruent,1,social,3,0,3,0,1,,,,,,,,,,
,,,,,,,,,,,,,,,,,chga99,001,2022-04-27_12h38.19.246,RALT_PLD,2020.2.10,Win32,60,,,,,,,,,,,,,,,,,,,,,,,,,5,0,5,0,1,,,,,
,,,,,,,,,,,,,,,,,chga99,001,2022-04-27_12h38.19.246,RALT_PLD,2020.2.10,Win32,60,,,,,,,,,,,,,,,,,,,,,,,,,,,,,,1,0,1,0,1
A,B,34,B,,,,,,,,,,,,,,chga99,001,2022-04-27_12h38.19.246,RALT_PLD,2020.2.10,Win32,60,,,,,,B,Yes,,,,,,,right,0,1.8344,Congruent,1,nonsocial,0,0,0,0,1,,,,,,,,,,
A,B,74,B,,,,,,,,,,,,,,chga99,001,2022-04-27_12h38.19.246,RALT_PLD,2020.2.10,Win32,60,,,,,,A,No,,,,,,,right,0,1.0386,Congruent,0,nonsocial,1,0,1,0,1,,,,,,,,,,
A,B,64,B,,,,,,,,,,,,,,chga99,001,2022-04-27_12h38.19.246,RALT_PLD,2020.2.10,Win32,60,,,,,,A,No,,,,,,,right,0,0.7324,Congruent,0,nonsocial,2,0,2,0,1,,,,,,,,,,
A,B,68,B,,,,,,,,,,,,,,chga99,001,2022-04-27_12h38.19.246,RALT_PLD,2020.2.10,Win32,60,,,,,,B,Yes,,,,,,,right,0,0.6358,Congruent,1,nonsocial,3,0,3,0,1,,,,,,,,,,
,,,,,,,,,,,,,,,,,chga99,001,2022-04-27_12h38.19.246,RALT_PLD,2020.2.10,Win32,60,,,,,,,,,,,,,,,,,,,,,,,,,0,0,0,0,1,,,,,
B,A,34,B,,,,,,,,,,,,,,chga99,001,2022-04-27_12h38.19.246,RALT_PLD,2020.2.10,Win32,60,,,,,,B,Yes,,,,,,,left,0,1.0634,Congruent,1,nonsocial,0,0,0,0,1,,,,,,,,,,
B,A,74,A,,,,,,,,,,,,,,chga99,001,2022-04-27_12h38.19.246,RALT_PLD,2020.2.10,Win32,60,,,,,,A,Yes,,,,,,,right,0,0.9871,Congruent,1,nonsocial,1,0,1,0,1,,,,,,,,,,
B,A,64,A,,,,,,,,,,,,,,chga99,001,2022-04-27_12h38.19.246,RALT_PLD,2020.2.10,Win32,60,,,,,,A,Yes,,,,,,,right,0,2.3542,Congruent,1,nonsocial,2,0,2,0,1,,,,,,,,,,
B,A,68,B,,,,,,,,,,,,,,chga99,001,2022-04-27_12h38.19.246,RALT_PLD,2020.2.10,Win32,60,,,,,,B,Yes,,,,,,,left,0,1.1073,Congruent,1,nonsocial,3,0,3,0,1,,,,,,,,,,
,,,,,,,,,,,,,,,,,chga99,001,2022-04-27_12h38.19.246,RALT_PLD,2020.2.10,Win32,60,,,,,,,,,,,,,,,,,,,,,,,,,1,0,1,0,1,,,,,
B,A,68,B,,,,,,,,,,,,,,chga99,001,2022-04-27_12h38.19.246,RALT_PLD,2020.2.10,Win32,60,,,,,,B,Yes,,,,,,,left,0,1.0389,Congruent,1,nonsocial,0,0,0,0,1,,,,,,,,,,
B,A,34,B,,,,,,,,,,,,,,chga99,001,2022-04-27_12h38.19.246,RALT_PLD,2020.2.10,Win32,60,,,,,,B,Yes,,,,,,,left,0,1.6274,Incongruent,0,nonsocial,1,0,1,0,1,,,,,,,,,,
B,A,64,A,,,,,,,,,,,,,,chga99,001,2022-04-27_12h38.19.246,RALT_PLD,2020.2.10,Win32,60,,,,,,A,Yes,,,,,,,right,0,1.0329,Congruent,1,nonsocial,2,0,2,0,1,,,,,,,,,,
B,A,74,A,,,,,,,,,,,,,,chga99,001,2022-04-27_12h38.19.246,RALT_PLD,2020.2.10,Win32,60,,,,,,A,Yes,,,,,,,right,0,1.232,Incongruent,0,nonsocial,3,0,3,0,1,,,,,,,,,,
,,,,,,,,,,,,,,,,,chga99,001,2022-04-27_12h38.19.246,RALT_PLD,2020.2.10,Win32,60,,,,,,,,,,,,,,,,,,,,,,,,,2,0,2,0,1,,,,,
A,B,64,A,,,,,,,,,,,,,,chga99,001,2022-04-27_12h38.19.246,RALT_PLD,2020.2.10,Win32,60,,,,,,A,Yes,,,,,,,left,0,1.5266,Congruent,1,nonsocial,0,0,0,0,1,,,,,,,,,,
A,B,68,B,,,,,,,,,,,,,,chga99,001,2022-04-27_12h38.19.246,RALT_PLD,2020.2.10,Win32,60,,,,,,B,Yes,,,,,,,right,0,0.9532,Congruent,1,nonsocial,1,0,1,0,1,,,,,,,,,,
A,B,74,A,,,,,,,,,,,,,,chga99,001,2022-04-27_12h38.19.246,RALT_PLD,2020.2.10,Win32,60,,,,,,A,Yes,,,,,,,left,0,1.7491,Congruent,1,nonsocial,2,0,2,0,1,,,,,,,,,,
A,B,34,B,,,,,,,,,,,,,,chga99,001,2022-04-27_12h38.19.246,RALT_PLD,2020.2.10,Win32,60,,,,,,B,Yes,,,,,,,right,0,0.8585,Congruent,1,nonsocial,3,0,3,0,1,,,,,,,,,,
,,,,,,,,,,,,,,,,,chga99,001,2022-04-27_12h38.19.246,RALT_PLD,2020.2.10,Win32,60,,,,,,,,,,,,,,,,,,,,,,,,,3,0,3,0,1,,,,,
B,A,64,B,,,,,,,,,,,,,,chga99,001,2022-04-27_12h38.19.246,RALT_PLD,2020.2.10,Win32,60,,,,,,A,No,,,,,,,left,0,2.9517,Congruent,0,nonsocial,0,0,0,0,1,,,,,,,,,,
B,A,74,A,,,,,,,,,,,,,,chga99,001,2022-04-27_12h38.19.246,RALT_PLD,2020.2.10,Win32,60,,,,,,A,Yes,,,,,,,right,0,1.6393,Congruent,1,nonsocial,1,0,1,0,1,,,,,,,,,,
B,A,34,A,,,,,,,,,,,,,,chga99,001,2022-04-27_12h38.19.246,RALT_PLD,2020.2.10,Win32,60,,,,,,B,No,,,,,,,right,0,4.4196,Congruent,0,nonsocial,2,0,2,0,1,,,,,,,,,,
B,A,68,B,,,,,,,,,,,,,,chga99,001,2022-04-27_12h38.19.246,RALT_PLD,2020.2.10,Win32,60,,,,,,B,Yes,,,,,,,left,0,4.0701,Congruent,1,nonsocial,3,0,3,0,1,,,,,,,,,,
,,,,,,,,,,,,,,,,,chga99,001,2022-04-27_12h38.19.246,RALT_PLD,2020.2.10,Win32,60,,,,,,,,,,,,,,,,,,,,,,,,,4,0,4,0,1,,,,,
A,B,74,A,,,,,,,,,,,,,,chga99,001,2022-04-27_12h38.19.246,RALT_PLD,2020.2.10,Win32,60,,,,,,A,Yes,,,,,,,left,0,5.0094,Congruent,1,nonsocial,0,0,0,0,1,,,,,,,,,,
A,B,34,B,,,,,,,,,,,,,,chga99,001,2022-04-27_12h38.19.246,RALT_PLD,2020.2.10,Win32,60,,,,,,B,Yes,,,,,,,right,0,1.111,Congruent,1,nonsocial,1,0,1,0,1,,,,,,,,,,
A,B,68,B,,,,,,,,,,,,,,chga99,001,2022-04-27_12h38.19.246,RALT_PLD,2020.2.10,Win32,60,,,,,,B,Yes,,,,,,,right,0,0.8788,Congruent,1,nonsocial,2,0,2,0,1,,,,,,,,,,
A,B,64,A,,,,,,,,,,,,,,chga99,001,2022-04-27_12h38.19.246,RALT_PLD,2020.2.10,Win32,60,,,,,,A,Yes,,,,,,,left,0,1.4933,Congruent,1,nonsocial,3,0,3,0,1,,,,,,,,,,
,,,,,,,,,,,,,,,,,chga99,001,2022-04-27_12h38.19.246,RALT_PLD,2020.2.10,Win32,60,,,,,,,,,,,,,,,,,,,,,,,,,5,0,5,0,1,,,,,
,,,,,,,,,,,,,,,,,chga99,001,2022-04-27_12h38.19.246,RALT_PLD,2020.2.10,Win32,60,,,,,,,,,,,,,,,,,,,,,,,,,,,,,,2,0,2,0,1
B,A,73,A,,,,,,,,,,,,,,chga99,001,2022-04-27_12h38.19.246,RALT_PLD,2020.2.10,Win32,60,,,,,,A,Yes,,,,,,,right,0,0.9437,Congruent,1,social,0,0,0,0,1,,,,,,,,,,
B,A,33,A,,,,,,,,,,,,,,chga99,001,2022-04-27_12h38.19.246,RALT_PLD,2020.2.10,Win32,60,,,,,,B,No,,,,,,,right,0,0.5987,Congruent,0,social,1,0,1,0,1,,,,,,,,,,
B,A,75,A,,,,,,,,,,,,,,chga99,001,2022-04-27_12h38.19.246,RALT_PLD,2020.2.10,Win32,60,,,,,,A,Yes,,,,,,,right,0,0.7698,Congruent,1,social,2,0,2,0,1,,,,,,,,,,
B,A,51,A,,,,,,,,,,,,,,chga99,001,2022-04-27_12h38.19.246,RALT_PLD,2020.2.10,Win32,60,,,,,,B,No,,,,,,,right,0,1.0203,Congruent,0,social,3,0,3,0,1,,,,,,,,,,
,,,,,,,,,,,,,,,,,chga99,001,2022-04-27_12h38.19.246,RALT_PLD,2020.2.10,Win32,60,,,,,,,,,,,,,,,,,,,,,,,,,0,0,0,0,1,,,,,
A,B,73,A,,,,,,,,,,,,,,chga99,001,2022-04-27_12h38.19.246,RALT_PLD,2020.2.10,Win32,60,,,,,,A,Yes,,,,,,,left,0,0.8562,Congruent,1,social,0,0,0,0,1,,,,,,,,,,
A,B,75,A,,,,,,,,,,,,,,chga99,001,2022-04-27_12h38.19.246,RALT_PLD,2020.2.10,Win32,60,,,,,,A,Yes,,,,,,,left,0,1.196,Congruent,1,social,1,0,1,0,1,,,,,,,,,,
A,B,33,B,,,,,,,,,,,,,,chga99,001,2022-04-27_12h38.19.246,RALT_PLD,2020.2.10,Win32,60,,,,,,B,Yes,,,,,,,right,0,1.0612,Incongruent,0,social,2,0,2,0,1,,,,,,,,,,
A,B,51,B,,,,,,,,,,,,,,chga99,001,2022-04-27_12h38.19.246,RALT_PLD,2020.2.10,Win32,60,,,,,,B,Yes,,,,,,,right,0,0.8979,Congruent,1,social,3,0,3,0,1,,,,,,,,,,
,,,,,,,,,,,,,,,,,chga99,001,2022-04-27_12h38.19.246,RALT_PLD,2020.2.10,Win32,60,,,,,,,,,,,,,,,,,,,,,,,,,1,0,1,0,1,,,,,
A,B,33,B,,,,,,,,,,,,,,chga99,001,2022-04-27_12h38.19.246,RALT_PLD,2020.2.10,Win32,60,,,,,,B,Yes,,,,,,,right,0,0.9691,Congruent,1,social,0,0,0,0,1,,,,,,,,,,
A,B,75,A,,,,,,,,,,,,,,chga99,001,2022-04-27_12h38.19.246,RALT_PLD,2020.2.10,Win32,60,,,,,,A,Yes,,,,,,,left,0,1.3112,Congruent,1,social,1,0,1,0,1,,,,,,,,,,
A,B,51,B,,,,,,,,,,,,,,chga99,001,2022-04-27_12h38.19.246,RALT_PLD,2020.2.10,Win32,60,,,,,,B,Yes,,,,,,,right,0,1.7557,Congruent,1,social,2,0,2,0,1,,,,,,,,,,
A,B,73,A,,,,,,,,,,,,,,chga99,001,2022-04-27_12h38.19.246,RALT_PLD,2020.2.10,Win32,60,,,,,,A,Yes,,,,,,,left,0,1.0744,Congruent,1,social,3,0,3,0,1,,,,,,,,,,
,,,,,,,,,,,,,,,,,chga99,001,2022-04-27_12h38.19.246,RALT_PLD,2020.2.10,Win32,60,,,,,,,,,,,,,,,,,,,,,,,,,2,0,2,0,1,,,,,
A,B,75,A,,,,,,,,,,,,,,chga99,001,2022-04-27_12h38.19.246,RALT_PLD,2020.2.10,Win32,60,,,,,,A,Yes,,,,,,,left,0,0.9756,Congruent,1,social,0,0,0,0,1,,,,,,,,,,
A,B,51,B,,,,,,,,,,,,,,chga99,001,2022-04-27_12h38.19.246,RALT_PLD,2020.2.10,Win32,60,,,,,,B,Yes,,,,,,,right,0,0.9556,Congruent,1,social,1,0,1,0,1,,,,,,,,,,
A,B,73,A,,,,,,,,,,,,,,chga99,001,2022-04-27_12h38.19.246,RALT_PLD,2020.2.10,Win32,60,,,,,,A,Yes,,,,,,,left,0,1.1114,Congruent,1,social,2,0,2,0,1,,,,,,,,,,
A,B,33,B,,,,,,,,,,,,,,chga99,001,2022-04-27_12h38.19.246,RALT_PLD,2020.2.10,Win32,60,,,,,,B,Yes,,,,,,,right,0,1.9397,Congruent,1,social,3,0,3,0,1,,,,,,,,,,
,,,,,,,,,,,,,,,,,chga99,001,2022-04-27_12h38.19.246,RALT_PLD,2020.2.10,Win32,60,,,,,,,,,,,,,,,,,,,,,,,,,3,0,3,0,1,,,,,
A,B,33,B,,,,,,,,,,,,,,chga99,001,2022-04-27_12h38.19.246,RALT_PLD,2020.2.10,Win32,60,,,,,,B,Yes,,,,,,,right,0,0.9342,Incongruent,0,social,0,0,0,0,1,,,,,,,,,,
A,B,75,A,,,,,,,,,,,,,,chga99,001,2022-04-27_12h38.19.246,RALT_PLD,2020.2.10,Win32,60,,,,,,A,Yes,,,,,,,left,0,0.9044,Congruent,1,social,1,0,1,0,1,,,,,,,,,,
A,B,73,A,,,,,,,,,,,,,,chga99,001,2022-04-27_12h38.19.246,RALT_PLD,2020.2.10,Win32,60,,,,,,A,Yes,,,,,,,left,0,1.4935,Congruent,1,social,2,0,2,0,1,,,,,,,,,,
A,B,51,B,,,,,,,,,,,,,,chga99,001,2022-04-27_12h38.19.246,RALT_PLD,2020.2.10,Win32,60,,,,,,B,Yes,,,,,,,right,0,0.8285,Incongruent,0,social,3,0,3,0,1,,,,,,,,,,
,,,,,,,,,,,,,,,,,chga99,001,2022-04-27_12h38.19.246,RALT_PLD,2020.2.10,Win32,60,,,,,,,,,,,,,,,,,,,,,,,,,4,0,4,0,1,,,,,
A,B,73,A,,,,,,,,,,,,,,chga99,001,2022-04-27_12h38.19.246,RALT_PLD,2020.2.10,Win32,60,,,,,,A,Yes,,,,,,,left,0,1.0794,Congruent,1,social,0,0,0,0,1,,,,,,,,,,
A,B,33,B,,,,,,,,,,,,,,chga99,001,2022-04-27_12h38.19.246,RALT_PLD,2020.2.10,Win32,60,,,,,,B,Yes,,,,,,,right,0,0.9854,Congruent,1,social,1,0,1,0,1,,,,,,,,,,
A,B,75,B,,,,,,,,,,,,,,chga99,001,2022-04-27_12h38.19.246,RALT_PLD,2020.2.10,Win32,60,,,,,,A,No,,,,,,,right,0,1.7904,Congruent,0,social,2,0,2,0,1,,,,,,,,,,
A,B,51,B,,,,,,,,,,,,,,chga99,001,2022-04-27_12h38.19.246,RALT_PLD,2020.2.10,Win32,60,,,,,,B,Yes,,,,,,,right,0,1.068,Congruent,1,social,3,0,3,0,1,,,,,,,,,,
,,,,,,,,,,,,,,,,,chga99,001,2022-04-27_12h38.19.246,RALT_PLD,2020.2.10,Win32,60,,,,,,,,,,,,,,,,,,,,,,,,,5,0,5,0,1,,,,,
,,,,,,,,,,,,,,,,,chga99,001,2022-04-27_12h38.19.246,RALT_PLD,2020.2.10,Win32,60,,,,,,,,,,,,,,,,,,,,,,,,,,,,,,3,0,3,0,1
