left,right,stim,ParticipantAnswer,response_training.keys,response_training.corr,response_training.rt,training_social.thisRepN,training_social.thisTrialN,training_social.thisN,training_social.thisIndex,training_social.ran,Stim,filename_neutral,filename_feedback_happy,filename_feedback_angry,CorrCatTrain,participant,session,date,expName,psychopyVersion,OS,frameRate,training_nonsocial.thisRepN,training_nonsocial.thisTrialN,training_nonsocial.thisN,training_nonsocial.thisIndex,training_nonsocial.ran,CorrCat,CorrectAns,prob_fb.thisRepN,prob_fb.thisTrialN,prob_fb.thisN,prob_fb.thisIndex,prob_fb.ran,CorrCatProb,response_training_2.keys,response_training_2.corr,response_training_2.rt,Congr/Incongr,Reward,BlockType,trials.thisRepN,trials.thisTrialN,trials.thisN,trials.thisIndex,trials.ran,cycles.thisRepN,cycles.thisTrialN,cycles.thisN,cycles.thisIndex,cycles.ran,blocks.thisRepN,blocks.thisTrialN,blocks.thisN,blocks.thisIndex,blocks.ran
B,A,99,A,right,0,4.7225,0,0,0,0,1,99,Stimuli/neutral/Still.jpg,Stimuli/social/happy/F01-Happy Women.mp4,Stimuli/social/angry/F04-Angry Women.mp4,A,djlu96,001,2022-05-17_14h10.26.495,RALT_PLD,2020.2.10,Win32,60,,,,,,,,,,,,,,,,,,,,,,,,,,,,,,,,,,
B,A,38,A,right,0,3.5063,0,1,1,1,1,38,Stimuli/neutral/Still.jpg,Stimuli/social/happy/M02-Happy Man.mp4,Stimuli/social/angry/M06-Angry Man.mp4,A,djlu96,001,2022-05-17_14h10.26.495,RALT_PLD,2020.2.10,Win32,60,,,,,,,,,,,,,,,,,,,,,,,,,,,,,,,,,,
B,A,91,,,0,,0,2,2,2,1,91,Stimuli/neutral/Still.jpg,Stimuli/social/happy/F01-Happy Women.mp4,Stimuli/social/angry/F04-Angry Women.mp4,B,djlu96,001,2022-05-17_14h10.26.495,RALT_PLD,2020.2.10,Win32,60,,,,,,,,,,,,,,,,,,,,,,,,,,,,,,,,,,
B,A,38,A,right,0,1.0937,0,3,3,3,1,38,Stimuli/neutral/Still.jpg,Stimuli/social/happy/M02-Happy Man.mp4,Stimuli/social/angry/M06-Angry Man.mp4,B,djlu96,001,2022-05-17_14h10.26.495,RALT_PLD,2020.2.10,Win32,60,,,,,,,,,,,,,,,,,,,,,,,,,,,,,,,,,,
B,A,98,A,right,0,1.202,,,,,,98,Stimuli/neutral/Still.jpg,Stimuli/nonsocial/Right Tick.mp4,Stimuli/nonsocial/Wrong Tick.mp4,B,djlu96,001,2022-05-17_14h10.26.495,RALT_PLD,2020.2.10,Win32,60,0,0,0,0,1,,,,,,,,,,,,,,,,,,,,,,,,,,,,,
B,A,39,A,right,0,3.1162,,,,,,39,Stimuli/neutral/Still.jpg,Stimuli/nonsocial/Right Tick.mp4,Stimuli/nonsocial/Wrong Tick.mp4,B,djlu96,001,2022-05-17_14h10.26.495,RALT_PLD,2020.2.10,Win32,60,0,1,1,3,1,,,,,,,,,,,,,,,,,,,,,,,,,,,,,
B,A,53,B,left,0,1.1445,,,,,,53,Stimuli/neutral/Still.jpg,Stimuli/nonsocial/Right Tick.mp4,Stimuli/nonsocial/Wrong Tick.mp4,A,djlu96,001,2022-05-17_14h10.26.495,RALT_PLD,2020.2.10,Win32,60,0,2,2,1,1,,,,,,,,,,,,,,,,,,,,,,,,,,,,,
B,A,43,B,left,0,1.8249,,,,,,43,Stimuli/neutral/Still.jpg,Stimuli/nonsocial/Right Tick.mp4,Stimuli/nonsocial/Wrong Tick.mp4,A,djlu96,001,2022-05-17_14h10.26.495,RALT_PLD,2020.2.10,Win32,60,0,3,3,2,1,,,,,,,,,,,,,,,,,,,,,,,,,,,,,
B,A,91,A,right,0,1.5797,,,,,,91,Stimuli/neutral/Still.jpg,Stimuli/social/happy/F01-Happy Women.mp4,Stimuli/social/angry/F04-Angry Women.mp4,,djlu96,001,2022-05-17_14h10.26.495,RALT_PLD,2020.2.10,Win32,60,,,,,,"[[""A"",""B"",""A"",""B""],[""B"",""A"",""B"",""A""]]",No,0,0,0,2,1,B,,,,,,,,,,,,,,,,,,,,,
B,A,38,A,right,0,1.1314,,,,,,38,Stimuli/neutral/Still.jpg,Stimuli/social/happy/M02-Happy Man.mp4,Stimuli/social/angry/M06-Angry Man.mp4,,djlu96,001,2022-05-17_14h10.26.495,RALT_PLD,2020.2.10,Win32,60,,,,,,"[[""A"",""B"",""A"",""B""],[""B"",""A"",""B"",""A""]]",Yes,0,1,1,1,1,A,,,,,,,,,,,,,,,,,,,,,
B,A,99,A,right,0,0.8636,,,,,,99,Stimuli/neutral/Still.jpg,Stimuli/social/happy/F01-Happy Women.mp4,Stimuli/social/angry/F04-Angry Women.mp4,,djlu96,001,2022-05-17_14h10.26.495,RALT_PLD,2020.2.10,Win32,60,,,,,,"[[""A"",""B"",""A"",""B""],[""B"",""A"",""B"",""A""]]",Yes,0,2,2,0,1,A,,,,,,,,,,,,,,,,,,,,,
B,A,38,B,left,0,2.1196,,,,,,38,Stimuli/neutral/Still.jpg,Stimuli/social/happy/M02-Happy Man.mp4,Stimuli/social/angry/M06-Angry Man.mp4,,djlu96,001,2022-05-17_14h10.26.495,RALT_PLD,2020.2.10,Win32,60,,,,,,"[[""A"",""B"",""A"",""B""],[""B"",""A"",""B"",""A""]]",Yes,0,3,3,3,1,B,,,,,,,,,,,,,,,,,,,,,
B,A,70,A,,,,,,,,,,,,,,djlu96,001,2022-05-17_14h10.26.495,RALT_PLD,2020.2.10,Win32,60,,,,,,B,No,,,,,,,right,0,0.7266,Incongruent,1,social,0,0,0,0,1,,,,,,,,,,
B,A,60,A,,,,,,,,,,,,,,djlu96,001,2022-05-17_14h10.26.495,RALT_PLD,2020.2.10,Win32,60,,,,,,B,No,,,,,,,right,0,0.7314,Congruent,0,social,1,0,1,0,1,,,,,,,,,,
B,A,62,A,,,,,,,,,,,,,,djlu96,001,2022-05-17_14h10.26.495,RALT_PLD,2020.2.10,Win32,60,,,,,,A,Yes,,,,,,,right,0,0.6767,Congruent,1,social,2,0,2,0,1,,,,,,,,,,
B,A,32,A,,,,,,,,,,,,,,djlu96,001,2022-05-17_14h10.26.495,RALT_PLD,2020.2.10,Win32,60,,,,,,A,Yes,,,,,,,right,0,0.5923,Incongruent,0,social,3,0,3,0,1,,,,,,,,,,
,,,,,,,,,,,,,,,,,djlu96,001,2022-05-17_14h10.26.495,RALT_PLD,2020.2.10,Win32,60,,,,,,,,,,,,,,,,,,,,,,,,,0,0,0,0,1,,,,,
B,A,32,A,,,,,,,,,,,,,,djlu96,001,2022-05-17_14h10.26.495,RALT_PLD,2020.2.10,Win32,60,,,,,,A,Yes,,,,,,,right,0,2.2817,Congruent,1,social,0,0,0,0,1,,,,,,,,,,
B,A,62,B,,,,,,,,,,,,,,djlu96,001,2022-05-17_14h10.26.495,RALT_PLD,2020.2.10,Win32,60,,,,,,A,No,,,,,,,left,0,1.1312,Congruent,0,social,1,0,1,0,1,,,,,,,,,,
B,A,70,A,,,,,,,,,,,,,,djlu96,001,2022-05-17_14h10.26.495,RALT_PLD,2020.2.10,Win32,60,,,,,,B,No,,,,,,,right,0,0.5368,Congruent,0,social,2,0,2,0,1,,,,,,,,,,
B,A,60,A,,,,,,,,,,,,,,djlu96,001,2022-05-17_14h10.26.495,RALT_PLD,2020.2.10,Win32,60,,,,,,B,No,,,,,,,right,0,0.7194,Congruent,0,social,3,0,3,0,1,,,,,,,,,,
,,,,,,,,,,,,,,,,,djlu96,001,2022-05-17_14h10.26.495,RALT_PLD,2020.2.10,Win32,60,,,,,,,,,,,,,,,,,,,,,,,,,1,0,1,0,1,,,,,
A,B,62,B,,,,,,,,,,,,,,djlu96,001,2022-05-17_14h10.26.495,RALT_PLD,2020.2.10,Win32,60,,,,,,A,No,,,,,,,right,0,1.3226,Congruent,0,social,0,0,0,0,1,,,,,,,,,,
A,B,70,A,,,,,,,,,,,,,,djlu96,001,2022-05-17_14h10.26.495,RALT_PLD,2020.2.10,Win32,60,,,,,,B,No,,,,,,,left,0,0.9339,Congruent,0,social,1,0,1,0,1,,,,,,,,,,
A,B,32,B,,,,,,,,,,,,,,djlu96,001,2022-05-17_14h10.26.495,RALT_PLD,2020.2.10,Win32,60,,,,,,A,No,,,,,,,right,0,2.169,Congruent,0,social,2,0,2,0,1,,,,,,,,,,
A,B,60,B,,,,,,,,,,,,,,djlu96,001,2022-05-17_14h10.26.495,RALT_PLD,2020.2.10,Win32,60,,,,,,B,Yes,,,,,,,right,0,1.8552,Congruent,1,social,3,0,3,0,1,,,,,,,,,,
,,,,,,,,,,,,,,,,,djlu96,001,2022-05-17_14h10.26.495,RALT_PLD,2020.2.10,Win32,60,,,,,,,,,,,,,,,,,,,,,,,,,2,0,2,0,1,,,,,
B,A,70,A,,,,,,,,,,,,,,djlu96,001,2022-05-17_14h10.26.495,RALT_PLD,2020.2.10,Win32,60,,,,,,B,No,,,,,,,right,0,2.3949,Congruent,0,social,0,0,0,0,1,,,,,,,,,,
B,A,60,A,,,,,,,,,,,,,,djlu96,001,2022-05-17_14h10.26.495,RALT_PLD,2020.2.10,Win32,60,,,,,,B,No,,,,,,,right,0,3.2102,Incongruent,1,social,1,0,1,0,1,,,,,,,,,,
B,A,32,B,,,,,,,,,,,,,,djlu96,001,2022-05-17_14h10.26.495,RALT_PLD,2020.2.10,Win32,60,,,,,,A,No,,,,,,,left,0,2.3337,Congruent,0,social,2,0,2,0,1,,,,,,,,,,
B,A,62,A,,,,,,,,,,,,,,djlu96,001,2022-05-17_14h10.26.495,RALT_PLD,2020.2.10,Win32,60,,,,,,A,Yes,,,,,,,right,0,1.4073,Congruent,1,social,3,0,3,0,1,,,,,,,,,,
,,,,,,,,,,,,,,,,,djlu96,001,2022-05-17_14h10.26.495,RALT_PLD,2020.2.10,Win32,60,,,,,,,,,,,,,,,,,,,,,,,,,3,0,3,0,1,,,,,
A,B,60,A,,,,,,,,,,,,,,djlu96,001,2022-05-17_14h10.26.495,RALT_PLD,2020.2.10,Win32,60,,,,,,B,No,,,,,,,left,0,3.3225,Congruent,0,social,0,0,0,0,1,,,,,,,,,,
A,B,70,B,,,,,,,,,,,,,,djlu96,001,2022-05-17_14h10.26.495,RALT_PLD,2020.2.10,Win32,60,,,,,,B,Yes,,,,,,,right,0,2.7956,Incongruent,0,social,1,0,1,0,1,,,,,,,,,,
A,B,62,A,,,,,,,,,,,,,,djlu96,001,2022-05-17_14h10.26.495,RALT_PLD,2020.2.10,Win32,60,,,,,,A,Yes,,,,,,,left,0,2.0766,Congruent,1,social,2,0,2,0,1,,,,,,,,,,
A,B,32,A,,,,,,,,,,,,,,djlu96,001,2022-05-17_14h10.26.495,RALT_PLD,2020.2.10,Win32,60,,,,,,A,Yes,,,,,,,left,0,1.7309,Congruent,1,social,3,0,3,0,1,,,,,,,,,,
,,,,,,,,,,,,,,,,,djlu96,001,2022-05-17_14h10.26.495,RALT_PLD,2020.2.10,Win32,60,,,,,,,,,,,,,,,,,,,,,,,,,4,0,4,0,1,,,,,
A,B,60,B,,,,,,,,,,,,,,djlu96,001,2022-05-17_14h10.26.495,RALT_PLD,2020.2.10,Win32,60,,,,,,B,Yes,,,,,,,right,0,1.6837,Congruent,1,social,0,0,0,0,1,,,,,,,,,,
A,B,32,A,,,,,,,,,,,,,,djlu96,001,2022-05-17_14h10.26.495,RALT_PLD,2020.2.10,Win32,60,,,,,,A,Yes,,,,,,,left,0,1.6767,Congruent,1,social,1,0,1,0,1,,,,,,,,,,
A,B,62,A,,,,,,,,,,,,,,djlu96,001,2022-05-17_14h10.26.495,RALT_PLD,2020.2.10,Win32,60,,,,,,A,Yes,,,,,,,left,0,1.2749,Congruent,1,social,2,0,2,0,1,,,,,,,,,,
A,B,70,B,,,,,,,,,,,,,,djlu96,001,2022-05-17_14h10.26.495,RALT_PLD,2020.2.10,Win32,60,,,,,,B,Yes,,,,,,,right,0,0.4344,Congruent,1,social,3,0,3,0,1,,,,,,,,,,
,,,,,,,,,,,,,,,,,djlu96,001,2022-05-17_14h10.26.495,RALT_PLD,2020.2.10,Win32,60,,,,,,,,,,,,,,,,,,,,,,,,,5,0,5,0,1,,,,,
,,,,,,,,,,,,,,,,,djlu96,001,2022-05-17_14h10.26.495,RALT_PLD,2020.2.10,Win32,60,,,,,,,,,,,,,,,,,,,,,,,,,,,,,,0,0,0,0,1
A,B,13,A,,,,,,,,,,,,,,djlu96,001,2022-05-17_14h10.26.495,RALT_PLD,2020.2.10,Win32,60,,,,,,B,No,,,,,,,left,0,1.2638,Incongruent,1,nonsocial,0,0,0,0,1,,,,,,,,,,
A,B,63,B,,,,,,,,,,,,,,djlu96,001,2022-05-17_14h10.26.495,RALT_PLD,2020.2.10,Win32,60,,,,,,A,No,,,,,,,right,0,1.3578,Congruent,0,nonsocial,1,0,1,0,1,,,,,,,,,,
A,B,43,A,,,,,,,,,,,,,,djlu96,001,2022-05-17_14h10.26.495,RALT_PLD,2020.2.10,Win32,60,,,,,,A,Yes,,,,,,,left,0,0.858,Congruent,1,nonsocial,2,0,2,0,1,,,,,,,,,,
A,B,65,B,,,,,,,,,,,,,,djlu96,001,2022-05-17_14h10.26.495,RALT_PLD,2020.2.10,Win32,60,,,,,,B,Yes,,,,,,,right,0,1.1665,Congruent,1,nonsocial,3,0,3,0,1,,,,,,,,,,
,,,,,,,,,,,,,,,,,djlu96,001,2022-05-17_14h10.26.495,RALT_PLD,2020.2.10,Win32,60,,,,,,,,,,,,,,,,,,,,,,,,,0,0,0,0,1,,,,,
A,B,43,A,,,,,,,,,,,,,,djlu96,001,2022-05-17_14h10.26.495,RALT_PLD,2020.2.10,Win32,60,,,,,,A,Yes,,,,,,,left,0,1.0304,Incongruent,0,nonsocial,0,0,0,0,1,,,,,,,,,,
A,B,63,A,,,,,,,,,,,,,,djlu96,001,2022-05-17_14h10.26.495,RALT_PLD,2020.2.10,Win32,60,,,,,,A,Yes,,,,,,,left,0,0.8122,Congruent,1,nonsocial,1,0,1,0,1,,,,,,,,,,
A,B,65,B,,,,,,,,,,,,,,djlu96,001,2022-05-17_14h10.26.495,RALT_PLD,2020.2.10,Win32,60,,,,,,B,Yes,,,,,,,right,0,0.728,Congruent,1,nonsocial,2,0,2,0,1,,,,,,,,,,
A,B,13,A,,,,,,,,,,,,,,djlu96,001,2022-05-17_14h10.26.495,RALT_PLD,2020.2.10,Win32,60,,,,,,B,No,,,,,,,left,0,0.6436,Incongruent,1,nonsocial,3,0,3,0,1,,,,,,,,,,
,,,,,,,,,,,,,,,,,djlu96,001,2022-05-17_14h10.26.495,RALT_PLD,2020.2.10,Win32,60,,,,,,,,,,,,,,,,,,,,,,,,,1,0,1,0,1,,,,,
B,A,63,A,,,,,,,,,,,,,,djlu96,001,2022-05-17_14h10.26.495,RALT_PLD,2020.2.10,Win32,60,,,,,,A,Yes,,,,,,,right,0,1.5144,Congruent,1,nonsocial,0,0,0,0,1,,,,,,,,,,
B,A,65,B,,,,,,,,,,,,,,djlu96,001,2022-05-17_14h10.26.495,RALT_PLD,2020.2.10,Win32,60,,,,,,B,Yes,,,,,,,left,0,1.0901,Congruent,1,nonsocial,1,0,1,0,1,,,,,,,,,,
B,A,13,A,,,,,,,,,,,,,,djlu96,001,2022-05-17_14h10.26.495,RALT_PLD,2020.2.10,Win32,60,,,,,,B,No,,,,,,,right,0,0.7881,Congruent,0,nonsocial,2,0,2,0,1,,,,,,,,,,
B,A,43,A,,,,,,,,,,,,,,djlu96,001,2022-05-17_14h10.26.495,RALT_PLD,2020.2.10,Win32,60,,,,,,A,Yes,,,,,,,right,0,1.3718,Congruent,1,nonsocial,3,0,3,0,1,,,,,,,,,,
,,,,,,,,,,,,,,,,,djlu96,001,2022-05-17_14h10.26.495,RALT_PLD,2020.2.10,Win32,60,,,,,,,,,,,,,,,,,,,,,,,,,2,0,2,0,1,,,,,
A,B,13,A,,,,,,,,,,,,,,djlu96,001,2022-05-17_14h10.26.495,RALT_PLD,2020.2.10,Win32,60,,,,,,B,No,,,,,,,left,0,1.6752,Congruent,0,nonsocial,0,0,0,0,1,,,,,,,,,,
A,B,63,A,,,,,,,,,,,,,,djlu96,001,2022-05-17_14h10.26.495,RALT_PLD,2020.2.10,Win32,60,,,,,,A,Yes,,,,,,,left,0,1.0774,Congruent,1,nonsocial,1,0,1,0,1,,,,,,,,,,
A,B,65,B,,,,,,,,,,,,,,djlu96,001,2022-05-17_14h10.26.495,RALT_PLD,2020.2.10,Win32,60,,,,,,B,Yes,,,,,,,right,0,0.7631,Congruent,1,nonsocial,2,0,2,0,1,,,,,,,,,,
A,B,43,B,,,,,,,,,,,,,,djlu96,001,2022-05-17_14h10.26.495,RALT_PLD,2020.2.10,Win32,60,,,,,,A,No,,,,,,,right,0,0.6185,Incongruent,1,nonsocial,3,0,3,0,1,,,,,,,,,,
,,,,,,,,,,,,,,,,,djlu96,001,2022-05-17_14h10.26.495,RALT_PLD,2020.2.10,Win32,60,,,,,,,,,,,,,,,,,,,,,,,,,3,0,3,0,1,,,,,
B,A,43,B,,,,,,,,,,,,,,djlu96,001,2022-05-17_14h10.26.495,RALT_PLD,2020.2.10,Win32,60,,,,,,A,No,,,,,,,left,0,1.2842,Congruent,0,nonsocial,0,0,0,0,1,,,,,,,,,,
B,A,65,B,,,,,,,,,,,,,,djlu96,001,2022-05-17_14h10.26.495,RALT_PLD,2020.2.10,Win32,60,,,,,,B,Yes,,,,,,,left,0,0.8227,Congruent,1,nonsocial,1,0,1,0,1,,,,,,,,,,
B,A,13,B,,,,,,,,,,,,,,djlu96,001,2022-05-17_14h10.26.495,RALT_PLD,2020.2.10,Win32,60,,,,,,B,Yes,,,,,,,left,0,0.7066,Congruent,1,nonsocial,2,0,2,0,1,,,,,,,,,,
B,A,63,A,,,,,,,,,,,,,,djlu96,001,2022-05-17_14h10.26.495,RALT_PLD,2020.2.10,Win32,60,,,,,,A,Yes,,,,,,,right,0,0.6058,Congruent,1,nonsocial,3,0,3,0,1,,,,,,,,,,
,,,,,,,,,,,,,,,,,djlu96,001,2022-05-17_14h10.26.495,RALT_PLD,2020.2.10,Win32,60,,,,,,,,,,,,,,,,,,,,,,,,,4,0,4,0,1,,,,,
B,A,13,A,,,,,,,,,,,,,,djlu96,001,2022-05-17_14h10.26.495,RALT_PLD,2020.2.10,Win32,60,,,,,,B,No,,,,,,,right,0,2.4192,Congruent,0,nonsocial,0,0,0,0,1,,,,,,,,,,
B,A,43,B,,,,,,,,,,,,,,djlu96,001,2022-05-17_14h10.26.495,RALT_PLD,2020.2.10,Win32,60,,,,,,A,No,,,,,,,left,0,2.0835,Congruent,0,nonsocial,1,0,1,0,1,,,,,,,,,,
B,A,65,B,,,,,,,,,,,,,,djlu96,001,2022-05-17_14h10.26.495,RALT_PLD,2020.2.10,Win32,60,,,,,,B,Yes,,,,,,,left,0,1.2093,Congruent,1,nonsocial,2,0,2,0,1,,,,,,,,,,
B,A,63,A,,,,,,,,,,,,,,djlu96,001,2022-05-17_14h10.26.495,RALT_PLD,2020.2.10,Win32,60,,,,,,A,Yes,,,,,,,right,0,0.877,Congruent,1,nonsocial,3,0,3,0,1,,,,,,,,,,
,,,,,,,,,,,,,,,,,djlu96,001,2022-05-17_14h10.26.495,RALT_PLD,2020.2.10,Win32,60,,,,,,,,,,,,,,,,,,,,,,,,,5,0,5,0,1,,,,,
,,,,,,,,,,,,,,,,,djlu96,001,2022-05-17_14h10.26.495,RALT_PLD,2020.2.10,Win32,60,,,,,,,,,,,,,,,,,,,,,,,,,,,,,,1,0,1,0,1
B,A,60,A,,,,,,,,,,,,,,djlu96,001,2022-05-17_14h10.26.495,RALT_PLD,2020.2.10,Win32,60,,,,,,B,No,,,,,,,right,0,1.2071,Congruent,0,social,0,0,0,0,1,,,,,,,,,,
B,A,32,A,,,,,,,,,,,,,,djlu96,001,2022-05-17_14h10.26.495,RALT_PLD,2020.2.10,Win32,60,,,,,,A,Yes,,,,,,,right,0,0.7989,Congruent,1,social,1,0,1,0,1,,,,,,,,,,
B,A,70,B,,,,,,,,,,,,,,djlu96,001,2022-05-17_14h10.26.495,RALT_PLD,2020.2.10,Win32,60,,,,,,B,Yes,,,,,,,left,0,1.7064,Congruent,1,social,2,0,2,0,1,,,,,,,,,,
B,A,62,A,,,,,,,,,,,,,,djlu96,001,2022-05-17_14h10.26.495,RALT_PLD,2020.2.10,Win32,60,,,,,,A,Yes,,,,,,,right,0,0.5276,Incongruent,0,social,3,0,3,0,1,,,,,,,,,,
,,,,,,,,,,,,,,,,,djlu96,001,2022-05-17_14h10.26.495,RALT_PLD,2020.2.10,Win32,60,,,,,,,,,,,,,,,,,,,,,,,,,0,0,0,0,1,,,,,
A,B,70,B,,,,,,,,,,,,,,djlu96,001,2022-05-17_14h10.26.495,RALT_PLD,2020.2.10,Win32,60,,,,,,B,Yes,,,,,,,right,0,1.9642,Incongruent,0,social,0,0,0,0,1,,,,,,,,,,
A,B,62,A,,,,,,,,,,,,,,djlu96,001,2022-05-17_14h10.26.495,RALT_PLD,2020.2.10,Win32,60,,,,,,A,Yes,,,,,,,left,0,1.6907,Congruent,1,social,1,0,1,0,1,,,,,,,,,,
A,B,60,B,,,,,,,,,,,,,,djlu96,001,2022-05-17_14h10.26.495,RALT_PLD,2020.2.10,Win32,60,,,,,,B,Yes,,,,,,,right,0,1.085,Incongruent,0,social,2,0,2,0,1,,,,,,,,,,
A,B,32,B,,,,,,,,,,,,,,djlu96,001,2022-05-17_14h10.26.495,RALT_PLD,2020.2.10,Win32,60,,,,,,A,No,,,,,,,right,0,1.6729,Congruent,0,social,3,0,3,0,1,,,,,,,,,,
,,,,,,,,,,,,,,,,,djlu96,001,2022-05-17_14h10.26.495,RALT_PLD,2020.2.10,Win32,60,,,,,,,,,,,,,,,,,,,,,,,,,1,0,1,0,1,,,,,
B,A,70,B,,,,,,,,,,,,,,djlu96,001,2022-05-17_14h10.26.495,RALT_PLD,2020.2.10,Win32,60,,,,,,B,Yes,,,,,,,left,0,1.4615,Congruent,1,social,0,0,0,0,1,,,,,,,,,,
B,A,62,A,,,,,,,,,,,,,,djlu96,001,2022-05-17_14h10.26.495,RALT_PLD,2020.2.10,Win32,60,,,,,,A,Yes,,,,,,,right,0,1.7154,Congruent,1,social,1,0,1,0,1,,,,,,,,,,
B,A,32,A,,,,,,,,,,,,,,djlu96,001,2022-05-17_14h10.26.495,RALT_PLD,2020.2.10,Win32,60,,,,,,A,Yes,,,,,,,right,0,1.8213,Congruent,1,social,2,0,2,0,1,,,,,,,,,,
B,A,60,A,,,,,,,,,,,,,,djlu96,001,2022-05-17_14h10.26.495,RALT_PLD,2020.2.10,Win32,60,,,,,,B,No,,,,,,,right,0,0.6638,Congruent,0,social,3,0,3,0,1,,,,,,,,,,
,,,,,,,,,,,,,,,,,djlu96,001,2022-05-17_14h10.26.495,RALT_PLD,2020.2.10,Win32,60,,,,,,,,,,,,,,,,,,,,,,,,,2,0,2,0,1,,,,,
B,A,60,A,,,,,,,,,,,,,,djlu96,001,2022-05-17_14h10.26.495,RALT_PLD,2020.2.10,Win32,60,,,,,,B,No,,,,,,,right,0,1.5759,Congruent,0,social,0,0,0,0,1,,,,,,,,,,
B,A,32,A,,,,,,,,,,,,,,djlu96,001,2022-05-17_14h10.26.495,RALT_PLD,2020.2.10,Win32,60,,,,,,A,Yes,,,,,,,right,0,0.7464,Congruent,1,social,1,0,1,0,1,,,,,,,,,,
B,A,70,A,,,,,,,,,,,,,,djlu96,001,2022-05-17_14h10.26.495,RALT_PLD,2020.2.10,Win32,60,,,,,,B,No,,,,,,,right,0,0.5334,Congruent,0,social,2,0,2,0,1,,,,,,,,,,
B,A,62,A,,,,,,,,,,,,,,djlu96,001,2022-05-17_14h10.26.495,RALT_PLD,2020.2.10,Win32,60,,,,,,A,Yes,,,,,,,right,0,0.5646,Congruent,1,social,3,0,3,0,1,,,,,,,,,,
,,,,,,,,,,,,,,,,,djlu96,001,2022-05-17_14h10.26.495,RALT_PLD,2020.2.10,Win32,60,,,,,,,,,,,,,,,,,,,,,,,,,3,0,3,0,1,,,,,
B,A,70,B,,,,,,,,,,,,,,djlu96,001,2022-05-17_14h10.26.495,RALT_PLD,2020.2.10,Win32,60,,,,,,B,Yes,,,,,,,left,0,0.793,Congruent,1,social,0,0,0,0,1,,,,,,,,,,
B,A,62,A,,,,,,,,,,,,,,djlu96,001,2022-05-17_14h10.26.495,RALT_PLD,2020.2.10,Win32,60,,,,,,A,Yes,,,,,,,right,0,1.1166,Congruent,1,social,1,0,1,0,1,,,,,,,,,,
B,A,60,A,,,,,,,,,,,,,,djlu96,001,2022-05-17_14h10.26.495,RALT_PLD,2020.2.10,Win32,60,,,,,,B,No,,,,,,,right,0,2.0731,Congruent,0,social,2,0,2,0,1,,,,,,,,,,
B,A,32,B,,,,,,,,,,,,,,djlu96,001,2022-05-17_14h10.26.495,RALT_PLD,2020.2.10,Win32,60,,,,,,A,No,,,,,,,left,0,0.5159,Congruent,0,social,3,0,3,0,1,,,,,,,,,,
,,,,,,,,,,,,,,,,,djlu96,001,2022-05-17_14h10.26.495,RALT_PLD,2020.2.10,Win32,60,,,,,,,,,,,,,,,,,,,,,,,,,4,0,4,0,1,,,,,
B,A,70,B,,,,,,,,,,,,,,djlu96,001,2022-05-17_14h10.26.495,RALT_PLD,2020.2.10,Win32,60,,,,,,B,Yes,,,,,,,left,0,1.5313,Incongruent,0,social,0,0,0,0,1,,,,,,,,,,
B,A,32,A,,,,,,,,,,,,,,djlu96,001,2022-05-17_14h10.26.495,RALT_PLD,2020.2.10,Win32,60,,,,,,A,Yes,,,,,,,right,0,1.4542,Congruent,1,social,1,0,1,0,1,,,,,,,,,,
B,A,60,A,,,,,,,,,,,,,,djlu96,001,2022-05-17_14h10.26.495,RALT_PLD,2020.2.10,Win32,60,,,,,,B,No,,,,,,,right,0,1.2284,Congruent,0,social,2,0,2,0,1,,,,,,,,,,
B,A,62,A,,,,,,,,,,,,,,djlu96,001,2022-05-17_14h10.26.495,RALT_PLD,2020.2.10,Win32,60,,,,,,A,Yes,,,,,,,right,0,0.3407,Congruent,1,social,3,0,3,0,1,,,,,,,,,,
,,,,,,,,,,,,,,,,,djlu96,001,2022-05-17_14h10.26.495,RALT_PLD,2020.2.10,Win32,60,,,,,,,,,,,,,,,,,,,,,,,,,5,0,5,0,1,,,,,
,,,,,,,,,,,,,,,,,djlu96,001,2022-05-17_14h10.26.495,RALT_PLD,2020.2.10,Win32,60,,,,,,,,,,,,,,,,,,,,,,,,,,,,,,2,0,2,0,1
A,B,13,A,,,,,,,,,,,,,,djlu96,001,2022-05-17_14h10.26.495,RALT_PLD,2020.2.10,Win32,60,,,,,,B,No,,,,,,,left,0,1.9688,Congruent,0,nonsocial,0,0,0,0,1,,,,,,,,,,
A,B,43,B,,,,,,,,,,,,,,djlu96,001,2022-05-17_14h10.26.495,RALT_PLD,2020.2.10,Win32,60,,,,,,A,No,,,,,,,right,0,1.1273,Incongruent,1,nonsocial,1,0,1,0,1,,,,,,,,,,
A,B,63,A,,,,,,,,,,,,,,djlu96,001,2022-05-17_14h10.26.495,RALT_PLD,2020.2.10,Win32,60,,,,,,A,Yes,,,,,,,left,0,0.7521,Congruent,1,nonsocial,2,0,2,0,1,,,,,,,,,,
A,B,65,A,,,,,,,,,,,,,,djlu96,001,2022-05-17_14h10.26.495,RALT_PLD,2020.2.10,Win32,60,,,,,,B,No,,,,,,,left,0,0.5991,Incongruent,1,nonsocial,3,0,3,0,1,,,,,,,,,,
,,,,,,,,,,,,,,,,,djlu96,001,2022-05-17_14h10.26.495,RALT_PLD,2020.2.10,Win32,60,,,,,,,,,,,,,,,,,,,,,,,,,0,0,0,0,1,,,,,
B,A,13,B,,,,,,,,,,,,,,djlu96,001,2022-05-17_14h10.26.495,RALT_PLD,2020.2.10,Win32,60,,,,,,B,Yes,,,,,,,left,0,0.8157,Congruent,1,nonsocial,0,0,0,0,1,,,,,,,,,,
B,A,63,A,,,,,,,,,,,,,,djlu96,001,2022-05-17_14h10.26.495,RALT_PLD,2020.2.10,Win32,60,,,,,,A,Yes,,,,,,,right,0,0.7524,Congruent,1,nonsocial,1,0,1,0,1,,,,,,,,,,
B,A,65,A,,,,,,,,,,,,,,djlu96,001,2022-05-17_14h10.26.495,RALT_PLD,2020.2.10,Win32,60,,,,,,B,No,,,,,,,right,0,0.8362,Congruent,0,nonsocial,2,0,2,0,1,,,,,,,,,,
B,A,43,B,,,,,,,,,,,,,,djlu96,001,2022-05-17_14h10.26.495,RALT_PLD,2020.2.10,Win32,60,,,,,,A,No,,,,,,,left,0,0.7959,Congruent,0,nonsocial,3,0,3,0,1,,,,,,,,,,
,,,,,,,,,,,,,,,,,djlu96,001,2022-05-17_14h10.26.495,RALT_PLD,2020.2.10,Win32,60,,,,,,,,,,,,,,,,,,,,,,,,,1,0,1,0,1,,,,,
A,B,65,A,,,,,,,,,,,,,,djlu96,001,2022-05-17_14h10.26.495,RALT_PLD,2020.2.10,Win32,60,,,,,,B,No,,,,,,,left,0,1.5109,Congruent,0,nonsocial,0,0,0,0,1,,,,,,,,,,
A,B,63,A,,,,,,,,,,,,,,djlu96,001,2022-05-17_14h10.26.495,RALT_PLD,2020.2.10,Win32,60,,,,,,A,Yes,,,,,,,left,0,0.7915,Congruent,1,nonsocial,1,0,1,0,1,,,,,,,,,,
A,B,13,B,,,,,,,,,,,,,,djlu96,001,2022-05-17_14h10.26.495,RALT_PLD,2020.2.10,Win32,60,,,,,,B,Yes,,,,,,,right,0,1.3218,Congruent,1,nonsocial,2,0,2,0,1,,,,,,,,,,
A,B,43,B,,,,,,,,,,,,,,djlu96,001,2022-05-17_14h10.26.495,RALT_PLD,2020.2.10,Win32,60,,,,,,A,No,,,,,,,right,0,1.1459,Congruent,0,nonsocial,3,0,3,0,1,,,,,,,,,,
,,,,,,,,,,,,,,,,,djlu96,001,2022-05-17_14h10.26.495,RALT_PLD,2020.2.10,Win32,60,,,,,,,,,,,,,,,,,,,,,,,,,2,0,2,0,1,,,,,
B,A,13,A,,,,,,,,,,,,,,djlu96,001,2022-05-17_14h10.26.495,RALT_PLD,2020.2.10,Win32,60,,,,,,B,No,,,,,,,right,0,1.1488,Congruent,0,nonsocial,0,0,0,0,1,,,,,,,,,,
B,A,65,A,,,,,,,,,,,,,,djlu96,001,2022-05-17_14h10.26.495,RALT_PLD,2020.2.10,Win32,60,,,,,,B,No,,,,,,,right,0,1.1673,Incongruent,1,nonsocial,1,0,1,0,1,,,,,,,,,,
B,A,43,B,,,,,,,,,,,,,,djlu96,001,2022-05-17_14h10.26.495,RALT_PLD,2020.2.10,Win32,60,,,,,,A,No,,,,,,,left,0,0.4213,Incongruent,1,nonsocial,2,0,2,0,1,,,,,,,,,,
B,A,63,A,,,,,,,,,,,,,,djlu96,001,2022-05-17_14h10.26.495,RALT_PLD,2020.2.10,Win32,60,,,,,,A,Yes,,,,,,,right,0,0.4193,Congruent,1,nonsocial,3,0,3,0,1,,,,,,,,,,
,,,,,,,,,,,,,,,,,djlu96,001,2022-05-17_14h10.26.495,RALT_PLD,2020.2.10,Win32,60,,,,,,,,,,,,,,,,,,,,,,,,,3,0,3,0,1,,,,,
B,A,63,B,,,,,,,,,,,,,,djlu96,001,2022-05-17_14h10.26.495,RALT_PLD,2020.2.10,Win32,60,,,,,,A,No,,,,,,,left,0,0.719,Congruent,0,nonsocial,0,0,0,0,1,,,,,,,,,,
B,A,43,A,,,,,,,,,,,,,,djlu96,001,2022-05-17_14h10.26.495,RALT_PLD,2020.2.10,Win32,60,,,,,,A,Yes,,,,,,,right,0,0.4086,Congruent,1,nonsocial,1,0,1,0,1,,,,,,,,,,
B,A,65,B,,,,,,,,,,,,,,djlu96,001,2022-05-17_14h10.26.495,RALT_PLD,2020.2.10,Win32,60,,,,,,B,Yes,,,,,,,left,0,0.3934,Congruent,1,nonsocial,2,0,2,0,1,,,,,,,,,,
B,A,13,A,,,,,,,,,,,,,,djlu96,001,2022-05-17_14h10.26.495,RALT_PLD,2020.2.10,Win32,60,,,,,,B,No,,,,,,,right,0,0.3911,Incongruent,1,nonsocial,3,0,3,0,1,,,,,,,,,,
,,,,,,,,,,,,,,,,,djlu96,001,2022-05-17_14h10.26.495,RALT_PLD,2020.2.10,Win32,60,,,,,,,,,,,,,,,,,,,,,,,,,4,0,4,0,1,,,,,
A,B,63,A,,,,,,,,,,,,,,djlu96,001,2022-05-17_14h10.26.495,RALT_PLD,2020.2.10,Win32,60,,,,,,A,Yes,,,,,,,left,0,0.7851,Congruent,1,nonsocial,0,0,0,0,1,,,,,,,,,,
A,B,65,A,,,,,,,,,,,,,,djlu96,001,2022-05-17_14h10.26.495,RALT_PLD,2020.2.10,Win32,60,,,,,,B,No,,,,,,,left,0,0.5579,Congruent,0,nonsocial,1,0,1,0,1,,,,,,,,,,
A,B,43,B,,,,,,,,,,,,,,djlu96,001,2022-05-17_14h10.26.495,RALT_PLD,2020.2.10,Win32,60,,,,,,A,No,,,,,,,right,0,0.5918,Congruent,0,nonsocial,2,0,2,0,1,,,,,,,,,,
A,B,13,A,,,,,,,,,,,,,,djlu96,001,2022-05-17_14h10.26.495,RALT_PLD,2020.2.10,Win32,60,,,,,,B,No,,,,,,,left,0,0.4806,Congruent,0,nonsocial,3,0,3,0,1,,,,,,,,,,
,,,,,,,,,,,,,,,,,djlu96,001,2022-05-17_14h10.26.495,RALT_PLD,2020.2.10,Win32,60,,,,,,,,,,,,,,,,,,,,,,,,,5,0,5,0,1,,,,,
,,,,,,,,,,,,,,,,,djlu96,001,2022-05-17_14h10.26.495,RALT_PLD,2020.2.10,Win32,60,,,,,,,,,,,,,,,,,,,,,,,,,,,,,,3,0,3,0,1
