left,right,stim,ParticipantAnswer,response_training.keys,response_training.corr,response_training.rt,training_social.thisRepN,training_social.thisTrialN,training_social.thisN,training_social.thisIndex,training_social.ran,Stim,filename_neutral,filename_feedback_happy,filename_feedback_angry,CorrCatTrain,participant,session,date,expName,psychopyVersion,OS,frameRate,training_nonsocial.thisRepN,training_nonsocial.thisTrialN,training_nonsocial.thisN,training_nonsocial.thisIndex,training_nonsocial.ran,CorrCat,CorrectAns,prob_fb.thisRepN,prob_fb.thisTrialN,prob_fb.thisN,prob_fb.thisIndex,prob_fb.ran,CorrCatProb,response_training_2.keys,response_training_2.corr,response_training_2.rt,BlockType,trials.thisRepN,trials.thisTrialN,trials.thisN,trials.thisIndex,trials.ran,Congr/Incongr,cycles.thisRepN,cycles.thisTrialN,cycles.thisN,cycles.thisIndex,cycles.ran,blocks.thisRepN,blocks.thisTrialN,blocks.thisN,blocks.thisIndex,blocks.ran
A,B,38,B,right,0,4.0465,0,0,0,3,1,38,Stimuli/neutral/Still.jpg,Stimuli/social/happy/M02-Happy Man.mp4,Stimuli/social/angry/M06-Angry Man.mp4,B,maas97,001,2022-03-16_13h11.24.581,RALT_PLD,2020.2.10,Win32,60,,,,,,,,,,,,,,,,,,,,,,,,,,,,,,,,,
A,B,38,A,left,0,1.9955,0,1,1,1,1,38,Stimuli/neutral/Still.jpg,Stimuli/social/happy/M02-Happy Man.mp4,Stimuli/social/angry/M06-Angry Man.mp4,A,maas97,001,2022-03-16_13h11.24.581,RALT_PLD,2020.2.10,Win32,60,,,,,,,,,,,,,,,,,,,,,,,,,,,,,,,,,
A,B,99,B,right,0,0.8598,0,2,2,0,1,99,Stimuli/neutral/Still.jpg,Stimuli/social/happy/F01-Happy Women.mp4,Stimuli/social/angry/F04-Angry Women.mp4,A,maas97,001,2022-03-16_13h11.24.581,RALT_PLD,2020.2.10,Win32,60,,,,,,,,,,,,,,,,,,,,,,,,,,,,,,,,,
A,B,91,A,left,0,3.0299,0,3,3,2,1,91,Stimuli/neutral/Still.jpg,Stimuli/social/happy/F01-Happy Women.mp4,Stimuli/social/angry/F04-Angry Women.mp4,B,maas97,001,2022-03-16_13h11.24.581,RALT_PLD,2020.2.10,Win32,60,,,,,,,,,,,,,,,,,,,,,,,,,,,,,,,,,
A,B,39,B,right,0,1.7932,,,,,,39,Stimuli/neutral/Still.jpg,Stimuli/nonsocial/Right Tick.mp4,Stimuli/nonsocial/Wrong Tick.mp4,B,maas97,001,2022-03-16_13h11.24.581,RALT_PLD,2020.2.10,Win32,60,0,0,0,3,1,,,,,,,,,,,,,,,,,,,,,,,,,,,,
A,B,53,A,left,0,2.2873,,,,,,53,Stimuli/neutral/Still.jpg,Stimuli/nonsocial/Right Tick.mp4,Stimuli/nonsocial/Wrong Tick.mp4,A,maas97,001,2022-03-16_13h11.24.581,RALT_PLD,2020.2.10,Win32,60,0,1,1,1,1,,,,,,,,,,,,,,,,,,,,,,,,,,,,
A,B,43,A,left,0,2.7028,,,,,,43,Stimuli/neutral/Still.jpg,Stimuli/nonsocial/Right Tick.mp4,Stimuli/nonsocial/Wrong Tick.mp4,A,maas97,001,2022-03-16_13h11.24.581,RALT_PLD,2020.2.10,Win32,60,0,2,2,2,1,,,,,,,,,,,,,,,,,,,,,,,,,,,,
A,B,98,B,right,0,1.4343,,,,,,98,Stimuli/neutral/Still.jpg,Stimuli/nonsocial/Right Tick.mp4,Stimuli/nonsocial/Wrong Tick.mp4,B,maas97,001,2022-03-16_13h11.24.581,RALT_PLD,2020.2.10,Win32,60,0,3,3,0,1,,,,,,,,,,,,,,,,,,,,,,,,,,,,
A,B,38,A,left,0,1.7637,,,,,,38,Stimuli/neutral/Still.jpg,Stimuli/social/happy/M02-Happy Man.mp4,Stimuli/social/angry/M06-Angry Man.mp4,,maas97,001,2022-03-16_13h11.24.581,RALT_PLD,2020.2.10,Win32,60,,,,,,"[[""A"",""A"",""B"",""B""],[""A"",""B"",""B"",""A""]]",Yes,0,0,0,1,1,A,,,,,,,,,,,,,,,,,,,,
A,B,99,B,right,0,1.0315,,,,,,99,Stimuli/neutral/Still.jpg,Stimuli/social/happy/F01-Happy Women.mp4,Stimuli/social/angry/F04-Angry Women.mp4,,maas97,001,2022-03-16_13h11.24.581,RALT_PLD,2020.2.10,Win32,60,,,,,,"[[""A"",""A"",""B"",""B""],[""A"",""B"",""B"",""A""]]",No,0,1,1,0,1,A,,,,,,,,,,,,,,,,,,,,
A,B,38,A,left,0,1.5058,,,,,,38,Stimuli/neutral/Still.jpg,Stimuli/social/happy/M02-Happy Man.mp4,Stimuli/social/angry/M06-Angry Man.mp4,,maas97,001,2022-03-16_13h11.24.581,RALT_PLD,2020.2.10,Win32,60,,,,,,"[[""A"",""A"",""B"",""B""],[""A"",""B"",""B"",""A""]]",No,0,2,2,3,1,B,,,,,,,,,,,,,,,,,,,,
A,B,91,A,left,0,2.5922,,,,,,91,Stimuli/neutral/Still.jpg,Stimuli/social/happy/F01-Happy Women.mp4,Stimuli/social/angry/F04-Angry Women.mp4,,maas97,001,2022-03-16_13h11.24.581,RALT_PLD,2020.2.10,Win32,60,,,,,,"[[""A"",""A"",""B"",""B""],[""A"",""B"",""B"",""A""]]",No,0,3,3,2,1,B,,,,,,,,,,,,,,,,,,,,
A,B,66,B,,,,,,,,,,,,,,maas97,001,2022-03-16_13h11.24.581,RALT_PLD,2020.2.10,Win32,60,,,,,,A,No,,,,,,,right,0,1.7181,nonsocial,0,0,0,0,1,,,,,,,,,,,
A,B,84,A,,,,,,,,,,,,,,maas97,001,2022-03-16_13h11.24.581,RALT_PLD,2020.2.10,Win32,60,,,,,,B,No,,,,,,,left,0,2.5336,nonsocial,1,0,1,0,1,,,,,,,,,,,
A,B,52,B,,,,,,,,,,,,,,maas97,001,2022-03-16_13h11.24.581,RALT_PLD,2020.2.10,Win32,60,,,,,,B,Yes,,,,,,,right,0,1.4071,nonsocial,2,0,2,0,1,Congruent,,,,,,,,,,
A,B,64,B,,,,,,,,,,,,,,maas97,001,2022-03-16_13h11.24.581,RALT_PLD,2020.2.10,Win32,60,,,,,,A,No,,,,,,,right,0,4.0124,nonsocial,3,0,3,0,1,,,,,,,,,,,
,,,,,,,,,,,,,,,,,maas97,001,2022-03-16_13h11.24.581,RALT_PLD,2020.2.10,Win32,60,,,,,,,,,,,,,,,,,,,,,,,,0,0,0,0,1,,,,,
A,B,64,A,,,,,,,,,,,,,,maas97,001,2022-03-16_13h11.24.581,RALT_PLD,2020.2.10,Win32,60,,,,,,A,Yes,,,,,,,left,0,1.3393,nonsocial,0,0,0,0,1,Congruent,,,,,,,,,,
A,B,84,B,,,,,,,,,,,,,,maas97,001,2022-03-16_13h11.24.581,RALT_PLD,2020.2.10,Win32,60,,,,,,B,Yes,,,,,,,right,0,2.2811,nonsocial,1,0,1,0,1,Congruent,,,,,,,,,,
A,B,66,A,,,,,,,,,,,,,,maas97,001,2022-03-16_13h11.24.581,RALT_PLD,2020.2.10,Win32,60,,,,,,A,Yes,,,,,,,left,0,0.6124,nonsocial,2,0,2,0,1,Incongruent,,,,,,,,,,
A,B,52,A,,,,,,,,,,,,,,maas97,001,2022-03-16_13h11.24.581,RALT_PLD,2020.2.10,Win32,60,,,,,,B,No,,,,,,,left,0,1.848,nonsocial,3,0,3,0,1,,,,,,,,,,,
,,,,,,,,,,,,,,,,,maas97,001,2022-03-16_13h11.24.581,RALT_PLD,2020.2.10,Win32,60,,,,,,,,,,,,,,,,,,,,,,,,1,0,1,0,1,,,,,
A,B,64,B,,,,,,,,,,,,,,maas97,001,2022-03-16_13h11.24.581,RALT_PLD,2020.2.10,Win32,60,,,,,,A,No,,,,,,,right,0,1.1155,nonsocial,0,0,0,0,1,,,,,,,,,,,
A,B,66,A,,,,,,,,,,,,,,maas97,001,2022-03-16_13h11.24.581,RALT_PLD,2020.2.10,Win32,60,,,,,,A,Yes,,,,,,,left,0,2.1348,nonsocial,1,0,1,0,1,Incongruent,,,,,,,,,,
A,B,52,A,,,,,,,,,,,,,,maas97,001,2022-03-16_13h11.24.581,RALT_PLD,2020.2.10,Win32,60,,,,,,B,No,,,,,,,left,0,0.3558,nonsocial,2,0,2,0,1,,,,,,,,,,,
A,B,84,B,,,,,,,,,,,,,,maas97,001,2022-03-16_13h11.24.581,RALT_PLD,2020.2.10,Win32,60,,,,,,B,Yes,,,,,,,right,0,0.9099,nonsocial,3,0,3,0,1,Congruent,,,,,,,,,,
,,,,,,,,,,,,,,,,,maas97,001,2022-03-16_13h11.24.581,RALT_PLD,2020.2.10,Win32,60,,,,,,,,,,,,,,,,,,,,,,,,2,0,2,0,1,,,,,
B,A,64,A,,,,,,,,,,,,,,maas97,001,2022-03-16_13h11.24.581,RALT_PLD,2020.2.10,Win32,60,,,,,,A,Yes,,,,,,,right,0,1.9355,nonsocial,0,0,0,0,1,Congruent,,,,,,,,,,
B,A,66,A,,,,,,,,,,,,,,maas97,001,2022-03-16_13h11.24.581,RALT_PLD,2020.2.10,Win32,60,,,,,,A,Yes,,,,,,,right,0,1.946,nonsocial,1,0,1,0,1,Congruent,,,,,,,,,,
B,A,52,B,,,,,,,,,,,,,,maas97,001,2022-03-16_13h11.24.581,RALT_PLD,2020.2.10,Win32,60,,,,,,B,Yes,,,,,,,left,0,1.0182,nonsocial,2,0,2,0,1,Congruent,,,,,,,,,,
B,A,84,A,,,,,,,,,,,,,,maas97,001,2022-03-16_13h11.24.581,RALT_PLD,2020.2.10,Win32,60,,,,,,B,No,,,,,,,right,0,5.8467,nonsocial,3,0,3,0,1,,,,,,,,,,,
,,,,,,,,,,,,,,,,,maas97,001,2022-03-16_13h11.24.581,RALT_PLD,2020.2.10,Win32,60,,,,,,,,,,,,,,,,,,,,,,,,3,0,3,0,1,,,,,
A,B,84,B,,,,,,,,,,,,,,maas97,001,2022-03-16_13h11.24.581,RALT_PLD,2020.2.10,Win32,60,,,,,,B,Yes,,,,,,,right,0,2.4463,nonsocial,0,0,0,0,1,Congruent,,,,,,,,,,
A,B,52,A,,,,,,,,,,,,,,maas97,001,2022-03-16_13h11.24.581,RALT_PLD,2020.2.10,Win32,60,,,,,,B,No,,,,,,,left,0,2.1219,nonsocial,1,0,1,0,1,,,,,,,,,,,
A,B,66,A,,,,,,,,,,,,,,maas97,001,2022-03-16_13h11.24.581,RALT_PLD,2020.2.10,Win32,60,,,,,,A,Yes,,,,,,,left,0,1.5264,nonsocial,2,0,2,0,1,Congruent,,,,,,,,,,
A,B,64,A,,,,,,,,,,,,,,maas97,001,2022-03-16_13h11.24.581,RALT_PLD,2020.2.10,Win32,60,,,,,,A,Yes,,,,,,,left,0,1.3121,nonsocial,3,0,3,0,1,Congruent,,,,,,,,,,
,,,,,,,,,,,,,,,,,maas97,001,2022-03-16_13h11.24.581,RALT_PLD,2020.2.10,Win32,60,,,,,,,,,,,,,,,,,,,,,,,,4,0,4,0,1,,,,,
B,A,66,A,,,,,,,,,,,,,,maas97,001,2022-03-16_13h11.24.581,RALT_PLD,2020.2.10,Win32,60,,,,,,A,Yes,,,,,,,right,0,1.1997,nonsocial,0,0,0,0,1,Congruent,,,,,,,,,,
B,A,84,B,,,,,,,,,,,,,,maas97,001,2022-03-16_13h11.24.581,RALT_PLD,2020.2.10,Win32,60,,,,,,B,Yes,,,,,,,left,0,1.788,nonsocial,1,0,1,0,1,Congruent,,,,,,,,,,
B,A,52,B,,,,,,,,,,,,,,maas97,001,2022-03-16_13h11.24.581,RALT_PLD,2020.2.10,Win32,60,,,,,,B,Yes,,,,,,,left,0,2.5553,nonsocial,2,0,2,0,1,Congruent,,,,,,,,,,
B,A,64,A,,,,,,,,,,,,,,maas97,001,2022-03-16_13h11.24.581,RALT_PLD,2020.2.10,Win32,60,,,,,,A,Yes,,,,,,,right,0,1.142,nonsocial,3,0,3,0,1,Congruent,,,,,,,,,,
,,,,,,,,,,,,,,,,,maas97,001,2022-03-16_13h11.24.581,RALT_PLD,2020.2.10,Win32,60,,,,,,,,,,,,,,,,,,,,,,,,5,0,5,0,1,,,,,
,,,,,,,,,,,,,,,,,maas97,001,2022-03-16_13h11.24.581,RALT_PLD,2020.2.10,Win32,60,,,,,,,,,,,,,,,,,,,,,,,,,,,,,0,0,0,0,1
A,B,39,A,,,,,,,,,,,,,,maas97,001,2022-03-16_13h11.24.581,RALT_PLD,2020.2.10,Win32,60,,,,,,B,No,,,,,,,left,0,2.501,social,0,0,0,0,1,,,,,,,,,,,
A,B,65,B,,,,,,,,,,,,,,maas97,001,2022-03-16_13h11.24.581,RALT_PLD,2020.2.10,Win32,60,,,,,,A,No,,,,,,,right,0,5.5431,social,1,0,1,0,1,,,,,,,,,,,
A,B,59,B,,,,,,,,,,,,,,maas97,001,2022-03-16_13h11.24.581,RALT_PLD,2020.2.10,Win32,60,,,,,,B,Yes,,,,,,,right,0,2.7235,social,2,0,2,0,1,Incongruent,,,,,,,,,,
A,B,25,A,,,,,,,,,,,,,,maas97,001,2022-03-16_13h11.24.581,RALT_PLD,2020.2.10,Win32,60,,,,,,A,Yes,,,,,,,left,0,2.4129,social,3,0,3,0,1,Incongruent,,,,,,,,,,
,,,,,,,,,,,,,,,,,maas97,001,2022-03-16_13h11.24.581,RALT_PLD,2020.2.10,Win32,60,,,,,,,,,,,,,,,,,,,,,,,,0,0,0,0,1,,,,,
B,A,25,B,,,,,,,,,,,,,,maas97,001,2022-03-16_13h11.24.581,RALT_PLD,2020.2.10,Win32,60,,,,,,A,No,,,,,,,left,0,2.245,social,0,0,0,0,1,,,,,,,,,,,
B,A,65,A,,,,,,,,,,,,,,maas97,001,2022-03-16_13h11.24.581,RALT_PLD,2020.2.10,Win32,60,,,,,,A,Yes,,,,,,,right,0,3.0599,social,1,0,1,0,1,Congruent,,,,,,,,,,
B,A,39,B,,,,,,,,,,,,,,maas97,001,2022-03-16_13h11.24.581,RALT_PLD,2020.2.10,Win32,60,,,,,,B,Yes,,,,,,,left,0,4.9742,social,2,0,2,0,1,Incongruent,,,,,,,,,,
B,A,59,B,,,,,,,,,,,,,,maas97,001,2022-03-16_13h11.24.581,RALT_PLD,2020.2.10,Win32,60,,,,,,B,Yes,,,,,,,left,0,1.6151,social,3,0,3,0,1,Congruent,,,,,,,,,,
,,,,,,,,,,,,,,,,,maas97,001,2022-03-16_13h11.24.581,RALT_PLD,2020.2.10,Win32,60,,,,,,,,,,,,,,,,,,,,,,,,1,0,1,0,1,,,,,
A,B,25,B,,,,,,,,,,,,,,maas97,001,2022-03-16_13h11.24.581,RALT_PLD,2020.2.10,Win32,60,,,,,,A,No,,,,,,,right,0,1.4943,social,0,0,0,0,1,,,,,,,,,,,
A,B,39,B,,,,,,,,,,,,,,maas97,001,2022-03-16_13h11.24.581,RALT_PLD,2020.2.10,Win32,60,,,,,,B,Yes,,,,,,,right,0,2.4405,social,1,0,1,0,1,Congruent,,,,,,,,,,
A,B,59,B,,,,,,,,,,,,,,maas97,001,2022-03-16_13h11.24.581,RALT_PLD,2020.2.10,Win32,60,,,,,,B,Yes,,,,,,,right,0,3.192,social,2,0,2,0,1,Congruent,,,,,,,,,,
A,B,65,A,,,,,,,,,,,,,,maas97,001,2022-03-16_13h11.24.581,RALT_PLD,2020.2.10,Win32,60,,,,,,A,Yes,,,,,,,left,0,1.4857,social,3,0,3,0,1,Congruent,,,,,,,,,,
,,,,,,,,,,,,,,,,,maas97,001,2022-03-16_13h11.24.581,RALT_PLD,2020.2.10,Win32,60,,,,,,,,,,,,,,,,,,,,,,,,2,0,2,0,1,,,,,
B,A,59,B,,,,,,,,,,,,,,maas97,001,2022-03-16_13h11.24.581,RALT_PLD,2020.2.10,Win32,60,,,,,,B,Yes,,,,,,,left,0,2.7102,social,0,0,0,0,1,Congruent,,,,,,,,,,
B,A,25,B,,,,,,,,,,,,,,maas97,001,2022-03-16_13h11.24.581,RALT_PLD,2020.2.10,Win32,60,,,,,,A,No,,,,,,,left,0,3.8146,social,1,0,1,0,1,,,,,,,,,,,
B,A,39,B,,,,,,,,,,,,,,maas97,001,2022-03-16_13h11.24.581,RALT_PLD,2020.2.10,Win32,60,,,,,,B,Yes,,,,,,,left,0,3.1622,social,2,0,2,0,1,Congruent,,,,,,,,,,
B,A,65,A,,,,,,,,,,,,,,maas97,001,2022-03-16_13h11.24.581,RALT_PLD,2020.2.10,Win32,60,,,,,,A,Yes,,,,,,,right,0,3.093,social,3,0,3,0,1,Congruent,,,,,,,,,,
,,,,,,,,,,,,,,,,,maas97,001,2022-03-16_13h11.24.581,RALT_PLD,2020.2.10,Win32,60,,,,,,,,,,,,,,,,,,,,,,,,3,0,3,0,1,,,,,
A,B,65,A,,,,,,,,,,,,,,maas97,001,2022-03-16_13h11.24.581,RALT_PLD,2020.2.10,Win32,60,,,,,,A,Yes,,,,,,,left,0,2.0231,social,0,0,0,0,1,Congruent,,,,,,,,,,
A,B,59,B,,,,,,,,,,,,,,maas97,001,2022-03-16_13h11.24.581,RALT_PLD,2020.2.10,Win32,60,,,,,,B,Yes,,,,,,,right,0,1.1922,social,1,0,1,0,1,Congruent,,,,,,,,,,
A,B,39,B,,,,,,,,,,,,,,maas97,001,2022-03-16_13h11.24.581,RALT_PLD,2020.2.10,Win32,60,,,,,,B,Yes,,,,,,,right,0,1.444,social,2,0,2,0,1,Congruent,,,,,,,,,,
A,B,25,A,,,,,,,,,,,,,,maas97,001,2022-03-16_13h11.24.581,RALT_PLD,2020.2.10,Win32,60,,,,,,A,Yes,,,,,,,left,0,1.2789,social,3,0,3,0,1,Congruent,,,,,,,,,,
,,,,,,,,,,,,,,,,,maas97,001,2022-03-16_13h11.24.581,RALT_PLD,2020.2.10,Win32,60,,,,,,,,,,,,,,,,,,,,,,,,4,0,4,0,1,,,,,
A,B,39,B,,,,,,,,,,,,,,maas97,001,2022-03-16_13h11.24.581,RALT_PLD,2020.2.10,Win32,60,,,,,,B,Yes,,,,,,,right,0,1.1061,social,0,0,0,0,1,Congruent,,,,,,,,,,
A,B,25,A,,,,,,,,,,,,,,maas97,001,2022-03-16_13h11.24.581,RALT_PLD,2020.2.10,Win32,60,,,,,,A,Yes,,,,,,,left,0,1.2473,social,1,0,1,0,1,Congruent,,,,,,,,,,
A,B,59,B,,,,,,,,,,,,,,maas97,001,2022-03-16_13h11.24.581,RALT_PLD,2020.2.10,Win32,60,,,,,,B,Yes,,,,,,,right,0,1.6125,social,2,0,2,0,1,Congruent,,,,,,,,,,
A,B,65,A,,,,,,,,,,,,,,maas97,001,2022-03-16_13h11.24.581,RALT_PLD,2020.2.10,Win32,60,,,,,,A,Yes,,,,,,,left,0,2.7896,social,3,0,3,0,1,Incongruent,,,,,,,,,,
,,,,,,,,,,,,,,,,,maas97,001,2022-03-16_13h11.24.581,RALT_PLD,2020.2.10,Win32,60,,,,,,,,,,,,,,,,,,,,,,,,5,0,5,0,1,,,,,
,,,,,,,,,,,,,,,,,maas97,001,2022-03-16_13h11.24.581,RALT_PLD,2020.2.10,Win32,60,,,,,,,,,,,,,,,,,,,,,,,,,,,,,1,0,1,0,1
B,A,84,B,,,,,,,,,,,,,,maas97,001,2022-03-16_13h11.24.581,RALT_PLD,2020.2.10,Win32,60,,,,,,B,Yes,,,,,,,left,0,3.0616,nonsocial,0,0,0,0,1,Congruent,,,,,,,,,,
B,A,64,B,,,,,,,,,,,,,,maas97,001,2022-03-16_13h11.24.581,RALT_PLD,2020.2.10,Win32,60,,,,,,A,No,,,,,,,left,0,0.7505,nonsocial,1,0,1,0,1,,,,,,,,,,,
B,A,52,A,,,,,,,,,,,,,,maas97,001,2022-03-16_13h11.24.581,RALT_PLD,2020.2.10,Win32,60,,,,,,B,No,,,,,,,right,0,3.0773,nonsocial,2,0,2,0,1,,,,,,,,,,,
B,A,66,A,,,,,,,,,,,,,,maas97,001,2022-03-16_13h11.24.581,RALT_PLD,2020.2.10,Win32,60,,,,,,A,Yes,,,,,,,right,0,1.7756,nonsocial,3,0,3,0,1,Congruent,,,,,,,,,,
,,,,,,,,,,,,,,,,,maas97,001,2022-03-16_13h11.24.581,RALT_PLD,2020.2.10,Win32,60,,,,,,,,,,,,,,,,,,,,,,,,0,0,0,0,1,,,,,
B,A,84,A,,,,,,,,,,,,,,maas97,001,2022-03-16_13h11.24.581,RALT_PLD,2020.2.10,Win32,60,,,,,,B,No,,,,,,,right,0,2.3396,nonsocial,0,0,0,0,1,,,,,,,,,,,
B,A,66,A,,,,,,,,,,,,,,maas97,001,2022-03-16_13h11.24.581,RALT_PLD,2020.2.10,Win32,60,,,,,,A,Yes,,,,,,,right,0,2.9323,nonsocial,1,0,1,0,1,Congruent,,,,,,,,,,
B,A,64,A,,,,,,,,,,,,,,maas97,001,2022-03-16_13h11.24.581,RALT_PLD,2020.2.10,Win32,60,,,,,,A,Yes,,,,,,,right,0,1.2446,nonsocial,2,0,2,0,1,Congruent,,,,,,,,,,
B,A,52,B,,,,,,,,,,,,,,maas97,001,2022-03-16_13h11.24.581,RALT_PLD,2020.2.10,Win32,60,,,,,,B,Yes,,,,,,,left,0,1.6968,nonsocial,3,0,3,0,1,Congruent,,,,,,,,,,
,,,,,,,,,,,,,,,,,maas97,001,2022-03-16_13h11.24.581,RALT_PLD,2020.2.10,Win32,60,,,,,,,,,,,,,,,,,,,,,,,,1,0,1,0,1,,,,,
A,B,52,B,,,,,,,,,,,,,,maas97,001,2022-03-16_13h11.24.581,RALT_PLD,2020.2.10,Win32,60,,,,,,B,Yes,,,,,,,right,0,1.5315,nonsocial,0,0,0,0,1,Incongruent,,,,,,,,,,
A,B,64,B,,,,,,,,,,,,,,maas97,001,2022-03-16_13h11.24.581,RALT_PLD,2020.2.10,Win32,60,,,,,,A,No,,,,,,,right,0,3.0662,nonsocial,1,0,1,0,1,,,,,,,,,,,
A,B,66,A,,,,,,,,,,,,,,maas97,001,2022-03-16_13h11.24.581,RALT_PLD,2020.2.10,Win32,60,,,,,,A,Yes,,,,,,,left,0,0.9257,nonsocial,2,0,2,0,1,Congruent,,,,,,,,,,
A,B,84,A,,,,,,,,,,,,,,maas97,001,2022-03-16_13h11.24.581,RALT_PLD,2020.2.10,Win32,60,,,,,,B,No,,,,,,,left,0,3.4765,nonsocial,3,0,3,0,1,,,,,,,,,,,
,,,,,,,,,,,,,,,,,maas97,001,2022-03-16_13h11.24.581,RALT_PLD,2020.2.10,Win32,60,,,,,,,,,,,,,,,,,,,,,,,,2,0,2,0,1,,,,,
B,A,52,A,,,,,,,,,,,,,,maas97,001,2022-03-16_13h11.24.581,RALT_PLD,2020.2.10,Win32,60,,,,,,B,No,,,,,,,right,0,2.1715,nonsocial,0,0,0,0,1,,,,,,,,,,,
B,A,84,B,,,,,,,,,,,,,,maas97,001,2022-03-16_13h11.24.581,RALT_PLD,2020.2.10,Win32,60,,,,,,B,Yes,,,,,,,left,0,0.3585,nonsocial,1,0,1,0,1,Congruent,,,,,,,,,,
B,A,66,A,,,,,,,,,,,,,,maas97,001,2022-03-16_13h11.24.581,RALT_PLD,2020.2.10,Win32,60,,,,,,A,Yes,,,,,,,right,0,0.5671,nonsocial,2,0,2,0,1,Congruent,,,,,,,,,,
B,A,64,B,,,,,,,,,,,,,,maas97,001,2022-03-16_13h11.24.581,RALT_PLD,2020.2.10,Win32,60,,,,,,A,No,,,,,,,left,0,0.5507,nonsocial,3,0,3,0,1,,,,,,,,,,,
,,,,,,,,,,,,,,,,,maas97,001,2022-03-16_13h11.24.581,RALT_PLD,2020.2.10,Win32,60,,,,,,,,,,,,,,,,,,,,,,,,3,0,3,0,1,,,,,
B,A,84,B,,,,,,,,,,,,,,maas97,001,2022-03-16_13h11.24.581,RALT_PLD,2020.2.10,Win32,60,,,,,,B,Yes,,,,,,,left,0,1.1339,nonsocial,0,0,0,0,1,Incongruent,,,,,,,,,,
B,A,66,B,,,,,,,,,,,,,,maas97,001,2022-03-16_13h11.24.581,RALT_PLD,2020.2.10,Win32,60,,,,,,A,No,,,,,,,left,0,1.6752,nonsocial,1,0,1,0,1,,,,,,,,,,,
B,A,64,A,,,,,,,,,,,,,,maas97,001,2022-03-16_13h11.24.581,RALT_PLD,2020.2.10,Win32,60,,,,,,A,Yes,,,,,,,right,0,1.0839,nonsocial,2,0,2,0,1,Congruent,,,,,,,,,,
B,A,52,B,,,,,,,,,,,,,,maas97,001,2022-03-16_13h11.24.581,RALT_PLD,2020.2.10,Win32,60,,,,,,B,Yes,,,,,,,left,0,1.2392,nonsocial,3,0,3,0,1,Congruent,,,,,,,,,,
,,,,,,,,,,,,,,,,,maas97,001,2022-03-16_13h11.24.581,RALT_PLD,2020.2.10,Win32,60,,,,,,,,,,,,,,,,,,,,,,,,4,0,4,0,1,,,,,
B,A,52,B,,,,,,,,,,,,,,maas97,001,2022-03-16_13h11.24.581,RALT_PLD,2020.2.10,Win32,60,,,,,,B,Yes,,,,,,,left,0,1.1119,nonsocial,0,0,0,0,1,Congruent,,,,,,,,,,
B,A,66,A,,,,,,,,,,,,,,maas97,001,2022-03-16_13h11.24.581,RALT_PLD,2020.2.10,Win32,60,,,,,,A,Yes,,,,,,,right,0,0.9254,nonsocial,1,0,1,0,1,Congruent,,,,,,,,,,
B,A,64,A,,,,,,,,,,,,,,maas97,001,2022-03-16_13h11.24.581,RALT_PLD,2020.2.10,Win32,60,,,,,,A,Yes,,,,,,,right,0,1.1256,nonsocial,2,0,2,0,1,Congruent,,,,,,,,,,
B,A,84,A,,,,,,,,,,,,,,maas97,001,2022-03-16_13h11.24.581,RALT_PLD,2020.2.10,Win32,60,,,,,,B,No,,,,,,,right,0,2.2202,nonsocial,3,0,3,0,1,,,,,,,,,,,
,,,,,,,,,,,,,,,,,maas97,001,2022-03-16_13h11.24.581,RALT_PLD,2020.2.10,Win32,60,,,,,,,,,,,,,,,,,,,,,,,,5,0,5,0,1,,,,,
,,,,,,,,,,,,,,,,,maas97,001,2022-03-16_13h11.24.581,RALT_PLD,2020.2.10,Win32,60,,,,,,,,,,,,,,,,,,,,,,,,,,,,,2,0,2,0,1
A,B,59,A,,,,,,,,,,,,,,maas97,001,2022-03-16_13h11.24.581,RALT_PLD,2020.2.10,Win32,60,,,,,,B,No,,,,,,,left,0,2.5607,social,0,0,0,0,1,,,,,,,,,,,
A,B,39,A,,,,,,,,,,,,,,maas97,001,2022-03-16_13h11.24.581,RALT_PLD,2020.2.10,Win32,60,,,,,,B,No,,,,,,,left,0,1.7704,social,1,0,1,0,1,,,,,,,,,,,
A,B,65,B,,,,,,,,,,,,,,maas97,001,2022-03-16_13h11.24.581,RALT_PLD,2020.2.10,Win32,60,,,,,,A,No,,,,,,,right,0,1.8709,social,2,0,2,0,1,,,,,,,,,,,
A,B,25,A,,,,,,,,,,,,,,maas97,001,2022-03-16_13h11.24.581,RALT_PLD,2020.2.10,Win32,60,,,,,,A,Yes,,,,,,,left,0,1.7031,social,3,0,3,0,1,Incongruent,,,,,,,,,,
,,,,,,,,,,,,,,,,,maas97,001,2022-03-16_13h11.24.581,RALT_PLD,2020.2.10,Win32,60,,,,,,,,,,,,,,,,,,,,,,,,0,0,0,0,1,,,,,
A,B,65,A,,,,,,,,,,,,,,maas97,001,2022-03-16_13h11.24.581,RALT_PLD,2020.2.10,Win32,60,,,,,,A,Yes,,,,,,,left,0,2.3724,social,0,0,0,0,1,Congruent,,,,,,,,,,
A,B,25,B,,,,,,,,,,,,,,maas97,001,2022-03-16_13h11.24.581,RALT_PLD,2020.2.10,Win32,60,,,,,,A,No,,,,,,,right,0,0.6651,social,1,0,1,0,1,,,,,,,,,,,
A,B,39,A,,,,,,,,,,,,,,maas97,001,2022-03-16_13h11.24.581,RALT_PLD,2020.2.10,Win32,60,,,,,,B,No,,,,,,,left,0,0.9552,social,2,0,2,0,1,,,,,,,,,,,
A,B,59,B,,,,,,,,,,,,,,maas97,001,2022-03-16_13h11.24.581,RALT_PLD,2020.2.10,Win32,60,,,,,,B,Yes,,,,,,,right,0,1.0509,social,3,0,3,0,1,Congruent,,,,,,,,,,
,,,,,,,,,,,,,,,,,maas97,001,2022-03-16_13h11.24.581,RALT_PLD,2020.2.10,Win32,60,,,,,,,,,,,,,,,,,,,,,,,,1,0,1,0,1,,,,,
B,A,39,A,,,,,,,,,,,,,,maas97,001,2022-03-16_13h11.24.581,RALT_PLD,2020.2.10,Win32,60,,,,,,B,No,,,,,,,right,0,3.2063,social,0,0,0,0,1,,,,,,,,,,,
B,A,25,B,,,,,,,,,,,,,,maas97,001,2022-03-16_13h11.24.581,RALT_PLD,2020.2.10,Win32,60,,,,,,A,No,,,,,,,left,0,2.6059,social,1,0,1,0,1,,,,,,,,,,,
B,A,65,A,,,,,,,,,,,,,,maas97,001,2022-03-16_13h11.24.581,RALT_PLD,2020.2.10,Win32,60,,,,,,A,Yes,,,,,,,right,0,1.0155,social,2,0,2,0,1,Congruent,,,,,,,,,,
B,A,59,B,,,,,,,,,,,,,,maas97,001,2022-03-16_13h11.24.581,RALT_PLD,2020.2.10,Win32,60,,,,,,B,Yes,,,,,,,left,0,3.9054,social,3,0,3,0,1,Congruent,,,,,,,,,,
,,,,,,,,,,,,,,,,,maas97,001,2022-03-16_13h11.24.581,RALT_PLD,2020.2.10,Win32,60,,,,,,,,,,,,,,,,,,,,,,,,2,0,2,0,1,,,,,
A,B,65,B,,,,,,,,,,,,,,maas97,001,2022-03-16_13h11.24.581,RALT_PLD,2020.2.10,Win32,60,,,,,,A,No,,,,,,,right,0,1.3597,social,0,0,0,0,1,,,,,,,,,,,
A,B,59,A,,,,,,,,,,,,,,maas97,001,2022-03-16_13h11.24.581,RALT_PLD,2020.2.10,Win32,60,,,,,,B,No,,,,,,,left,0,0.7762,social,1,0,1,0,1,,,,,,,,,,,
A,B,39,A,,,,,,,,,,,,,,maas97,001,2022-03-16_13h11.24.581,RALT_PLD,2020.2.10,Win32,60,,,,,,B,No,,,,,,,left,0,2.5143,social,2,0,2,0,1,,,,,,,,,,,
A,B,25,B,,,,,,,,,,,,,,maas97,001,2022-03-16_13h11.24.581,RALT_PLD,2020.2.10,Win32,60,,,,,,A,No,,,,,,,right,0,0.8966,social,3,0,3,0,1,,,,,,,,,,,
,,,,,,,,,,,,,,,,,maas97,001,2022-03-16_13h11.24.581,RALT_PLD,2020.2.10,Win32,60,,,,,,,,,,,,,,,,,,,,,,,,3,0,3,0,1,,,,,
B,A,59,A,,,,,,,,,,,,,,maas97,001,2022-03-16_13h11.24.581,RALT_PLD,2020.2.10,Win32,60,,,,,,B,No,,,,,,,right,0,1.1455,social,0,0,0,0,1,,,,,,,,,,,
B,A,39,A,,,,,,,,,,,,,,maas97,001,2022-03-16_13h11.24.581,RALT_PLD,2020.2.10,Win32,60,,,,,,B,No,,,,,,,right,0,2.0997,social,1,0,1,0,1,,,,,,,,,,,
B,A,25,B,,,,,,,,,,,,,,maas97,001,2022-03-16_13h11.24.581,RALT_PLD,2020.2.10,Win32,60,,,,,,A,No,,,,,,,left,0,1.0713,social,2,0,2,0,1,,,,,,,,,,,
B,A,65,A,,,,,,,,,,,,,,maas97,001,2022-03-16_13h11.24.581,RALT_PLD,2020.2.10,Win32,60,,,,,,A,Yes,,,,,,,right,0,0.8272,social,3,0,3,0,1,Congruent,,,,,,,,,,
,,,,,,,,,,,,,,,,,maas97,001,2022-03-16_13h11.24.581,RALT_PLD,2020.2.10,Win32,60,,,,,,,,,,,,,,,,,,,,,,,,4,0,4,0,1,,,,,
B,A,65,A,,,,,,,,,,,,,,maas97,001,2022-03-16_13h11.24.581,RALT_PLD,2020.2.10,Win32,60,,,,,,A,Yes,,,,,,,right,0,0.7523,social,0,0,0,0,1,Congruent,,,,,,,,,,
B,A,59,B,,,,,,,,,,,,,,maas97,001,2022-03-16_13h11.24.581,RALT_PLD,2020.2.10,Win32,60,,,,,,B,Yes,,,,,,,left,0,1.6574,social,1,0,1,0,1,Congruent,,,,,,,,,,
B,A,25,A,,,,,,,,,,,,,,maas97,001,2022-03-16_13h11.24.581,RALT_PLD,2020.2.10,Win32,60,,,,,,A,Yes,,,,,,,right,0,0.85,social,2,0,2,0,1,Incongruent,,,,,,,,,,
B,A,39,B,,,,,,,,,,,,,,maas97,001,2022-03-16_13h11.24.581,RALT_PLD,2020.2.10,Win32,60,,,,,,B,Yes,,,,,,,left,0,1.8724,social,3,0,3,0,1,Congruent,,,,,,,,,,
,,,,,,,,,,,,,,,,,maas97,001,2022-03-16_13h11.24.581,RALT_PLD,2020.2.10,Win32,60,,,,,,,,,,,,,,,,,,,,,,,,5,0,5,0,1,,,,,
,,,,,,,,,,,,,,,,,maas97,001,2022-03-16_13h11.24.581,RALT_PLD,2020.2.10,Win32,60,,,,,,,,,,,,,,,,,,,,,,,,,,,,,3,0,3,0,1
