left,right,stim,ParticipantAnswer,response_training.keys,response_training.corr,response_training.rt,training_social.thisRepN,training_social.thisTrialN,training_social.thisN,training_social.thisIndex,training_social.ran,Stim,filename_neutral,filename_feedback_happy,filename_feedback_angry,CorrCatTrain,participant,session,date,expName,psychopyVersion,OS,frameRate,training_nonsocial.thisRepN,training_nonsocial.thisTrialN,training_nonsocial.thisN,training_nonsocial.thisIndex,training_nonsocial.ran,CorrCat,CorrectAns,prob_fb.thisRepN,prob_fb.thisTrialN,prob_fb.thisN,prob_fb.thisIndex,prob_fb.ran,CorrCatProb,response_training_2.keys,response_training_2.corr,response_training_2.rt,Congr/Incongr,Reward,BlockType,trials.thisRepN,trials.thisTrialN,trials.thisN,trials.thisIndex,trials.ran,cycles.thisRepN,cycles.thisTrialN,cycles.thisN,cycles.thisIndex,cycles.ran,blocks.thisRepN,blocks.thisTrialN,blocks.thisN,blocks.thisIndex,blocks.ran
A,B,38,B,right,0,1.1973,0,0,0,1,1,38,Stimuli/neutral/Still.jpg,Stimuli/social/happy/M02-Happy Man.mp4,Stimuli/social/angry/M06-Angry Man.mp4,A,,001,2022-04-05_08h17.17.264,RALT_PLD,2020.2.10,Win32,60,,,,,,,,,,,,,,,,,,,,,,,,,,,,,,,,,,
A,B,91,A,left,0,0.8328,0,1,1,2,1,91,Stimuli/neutral/Still.jpg,Stimuli/social/happy/F01-Happy Women.mp4,Stimuli/social/angry/F04-Angry Women.mp4,B,,001,2022-04-05_08h17.17.264,RALT_PLD,2020.2.10,Win32,60,,,,,,,,,,,,,,,,,,,,,,,,,,,,,,,,,,
A,B,38,A,left,0,1.0323,0,2,2,3,1,38,Stimuli/neutral/Still.jpg,Stimuli/social/happy/M02-Happy Man.mp4,Stimuli/social/angry/M06-Angry Man.mp4,B,,001,2022-04-05_08h17.17.264,RALT_PLD,2020.2.10,Win32,60,,,,,,,,,,,,,,,,,,,,,,,,,,,,,,,,,,
A,B,99,B,right,0,0.3138,0,3,3,0,1,99,Stimuli/neutral/Still.jpg,Stimuli/social/happy/F01-Happy Women.mp4,Stimuli/social/angry/F04-Angry Women.mp4,A,,001,2022-04-05_08h17.17.264,RALT_PLD,2020.2.10,Win32,60,,,,,,,,,,,,,,,,,,,,,,,,,,,,,,,,,,
A,B,43,B,right,0,2.6575,,,,,,43,Stimuli/neutral/Still.jpg,Stimuli/nonsocial/Right Tick.mp4,Stimuli/nonsocial/Wrong Tick.mp4,A,,001,2022-04-05_08h17.17.264,RALT_PLD,2020.2.10,Win32,60,0,0,0,2,1,,,,,,,,,,,,,,,,,,,,,,,,,,,,,
A,B,53,B,right,0,0.4367,,,,,,53,Stimuli/neutral/Still.jpg,Stimuli/nonsocial/Right Tick.mp4,Stimuli/nonsocial/Wrong Tick.mp4,A,,001,2022-04-05_08h17.17.264,RALT_PLD,2020.2.10,Win32,60,0,1,1,1,1,,,,,,,,,,,,,,,,,,,,,,,,,,,,,
A,B,39,A,left,0,0.3,,,,,,39,Stimuli/neutral/Still.jpg,Stimuli/nonsocial/Right Tick.mp4,Stimuli/nonsocial/Wrong Tick.mp4,B,,001,2022-04-05_08h17.17.264,RALT_PLD,2020.2.10,Win32,60,0,2,2,3,1,,,,,,,,,,,,,,,,,,,,,,,,,,,,,
A,B,98,B,right,0,0.273,,,,,,98,Stimuli/neutral/Still.jpg,Stimuli/nonsocial/Right Tick.mp4,Stimuli/nonsocial/Wrong Tick.mp4,B,,001,2022-04-05_08h17.17.264,RALT_PLD,2020.2.10,Win32,60,0,3,3,0,1,,,,,,,,,,,,,,,,,,,,,,,,,,,,,
A,B,38,B,right,0,0.3985,,,,,,38,Stimuli/neutral/Still.jpg,Stimuli/social/happy/M02-Happy Man.mp4,Stimuli/social/angry/M06-Angry Man.mp4,,,001,2022-04-05_08h17.17.264,RALT_PLD,2020.2.10,Win32,60,,,,,,"[[""A"",""A"",""B"",""B""],[""A"",""B"",""A"",""B""]]",Yes,0,0,0,3,1,B,,,,,,,,,,,,,,,,,,,,,
A,B,99,A,left,0,0.317,,,,,,99,Stimuli/neutral/Still.jpg,Stimuli/social/happy/F01-Happy Women.mp4,Stimuli/social/angry/F04-Angry Women.mp4,,,001,2022-04-05_08h17.17.264,RALT_PLD,2020.2.10,Win32,60,,,,,,"[[""A"",""A"",""B"",""B""],[""A"",""B"",""A"",""B""]]",Yes,0,1,1,0,1,A,,,,,,,,,,,,,,,,,,,,,
A,B,91,A,left,0,0.722,,,,,,91,Stimuli/neutral/Still.jpg,Stimuli/social/happy/F01-Happy Women.mp4,Stimuli/social/angry/F04-Angry Women.mp4,,,001,2022-04-05_08h17.17.264,RALT_PLD,2020.2.10,Win32,60,,,,,,"[[""A"",""A"",""B"",""B""],[""A"",""B"",""A"",""B""]]",No,0,2,2,2,1,B,,,,,,,,,,,,,,,,,,,,,
A,B,38,B,right,0,0.3902,,,,,,38,Stimuli/neutral/Still.jpg,Stimuli/social/happy/M02-Happy Man.mp4,Stimuli/social/angry/M06-Angry Man.mp4,,,001,2022-04-05_08h17.17.264,RALT_PLD,2020.2.10,Win32,60,,,,,,"[[""A"",""A"",""B"",""B""],[""A"",""B"",""A"",""B""]]",No,0,3,3,1,1,A,,,,,,,,,,,,,,,,,,,,,
B,A,48,A,,,,,,,,,,,,,,,001,2022-04-05_08h17.17.264,RALT_PLD,2020.2.10,Win32,60,,,,,,A,Yes,,,,,,,right,0,0.4807,Congruent,1,nonsocial,0,0,0,0,1,,,,,,,,,,
B,A,44,A,,,,,,,,,,,,,,,001,2022-04-05_08h17.17.264,RALT_PLD,2020.2.10,Win32,60,,,,,,B,No,,,,,,,right,0,0.4013,Congruent,0,nonsocial,1,0,1,0,1,,,,,,,,,,
B,A,70,A,,,,,,,,,,,,,,,001,2022-04-05_08h17.17.264,RALT_PLD,2020.2.10,Win32,60,,,,,,B,No,,,,,,,right,0,0.3733,Congruent,0,nonsocial,2,0,2,0,1,,,,,,,,,,
B,A,50,B,,,,,,,,,,,,,,,001,2022-04-05_08h17.17.264,RALT_PLD,2020.2.10,Win32,60,,,,,,A,No,,,,,,,left,0,0.5759,Incongruent,1,nonsocial,3,0,3,0,1,,,,,,,,,,
,,,,,,,,,,,,,,,,,,001,2022-04-05_08h17.17.264,RALT_PLD,2020.2.10,Win32,60,,,,,,,,,,,,,,,,,,,,,,,,,0,0,0,0,1,,,,,
B,A,70,B,,,,,,,,,,,,,,,001,2022-04-05_08h17.17.264,RALT_PLD,2020.2.10,Win32,60,,,,,,B,Yes,,,,,,,left,0,1.1963,Incongruent,0,nonsocial,0,0,0,0,1,,,,,,,,,,
B,A,48,A,,,,,,,,,,,,,,,001,2022-04-05_08h17.17.264,RALT_PLD,2020.2.10,Win32,60,,,,,,A,Yes,,,,,,,right,0,0.6507,Congruent,1,nonsocial,1,0,1,0,1,,,,,,,,,,
B,A,50,A,,,,,,,,,,,,,,,001,2022-04-05_08h17.17.264,RALT_PLD,2020.2.10,Win32,60,,,,,,A,Yes,,,,,,,right,0,1.1425,Congruent,1,nonsocial,2,0,2,0,1,,,,,,,,,,
B,A,44,B,,,,,,,,,,,,,,,001,2022-04-05_08h17.17.264,RALT_PLD,2020.2.10,Win32,60,,,,,,B,Yes,,,,,,,left,0,0.3375,Incongruent,0,nonsocial,3,0,3,0,1,,,,,,,,,,
,,,,,,,,,,,,,,,,,,001,2022-04-05_08h17.17.264,RALT_PLD,2020.2.10,Win32,60,,,,,,,,,,,,,,,,,,,,,,,,,1,0,1,0,1,,,,,
B,A,44,A,,,,,,,,,,,,,,,001,2022-04-05_08h17.17.264,RALT_PLD,2020.2.10,Win32,60,,,,,,B,No,,,,,,,right,0,0.359,Incongruent,1,nonsocial,0,0,0,0,1,,,,,,,,,,
B,A,70,B,,,,,,,,,,,,,,,001,2022-04-05_08h17.17.264,RALT_PLD,2020.2.10,Win32,60,,,,,,B,Yes,,,,,,,left,0,0.5171,Congruent,1,nonsocial,1,0,1,0,1,,,,,,,,,,
B,A,48,A,,,,,,,,,,,,,,,001,2022-04-05_08h17.17.264,RALT_PLD,2020.2.10,Win32,60,,,,,,A,Yes,,,,,,,right,0,0.268,Congruent,1,nonsocial,2,0,2,0,1,,,,,,,,,,
B,A,50,A,,,,,,,,,,,,,,,001,2022-04-05_08h17.17.264,RALT_PLD,2020.2.10,Win32,60,,,,,,A,Yes,,,,,,,right,0,0.7187,Congruent,1,nonsocial,3,0,3,0,1,,,,,,,,,,
,,,,,,,,,,,,,,,,,,001,2022-04-05_08h17.17.264,RALT_PLD,2020.2.10,Win32,60,,,,,,,,,,,,,,,,,,,,,,,,,2,0,2,0,1,,,,,
A,B,50,B,,,,,,,,,,,,,,,001,2022-04-05_08h17.17.264,RALT_PLD,2020.2.10,Win32,60,,,,,,A,No,,,,,,,right,0,0.6753,Congruent,0,nonsocial,0,0,0,0,1,,,,,,,,,,
A,B,48,A,,,,,,,,,,,,,,,001,2022-04-05_08h17.17.264,RALT_PLD,2020.2.10,Win32,60,,,,,,A,Yes,,,,,,,left,0,0.8421,Incongruent,0,nonsocial,1,0,1,0,1,,,,,,,,,,
A,B,44,B,,,,,,,,,,,,,,,001,2022-04-05_08h17.17.264,RALT_PLD,2020.2.10,Win32,60,,,,,,B,Yes,,,,,,,right,0,0.5143,Congruent,1,nonsocial,2,0,2,0,1,,,,,,,,,,
A,B,70,B,,,,,,,,,,,,,,,001,2022-04-05_08h17.17.264,RALT_PLD,2020.2.10,Win32,60,,,,,,B,Yes,,,,,,,right,0,0.3435,Incongruent,0,nonsocial,3,0,3,0,1,,,,,,,,,,
,,,,,,,,,,,,,,,,,,001,2022-04-05_08h17.17.264,RALT_PLD,2020.2.10,Win32,60,,,,,,,,,,,,,,,,,,,,,,,,,3,0,3,0,1,,,,,
A,B,44,B,,,,,,,,,,,,,,,001,2022-04-05_08h17.17.264,RALT_PLD,2020.2.10,Win32,60,,,,,,B,Yes,,,,,,,right,0,0.5382,Congruent,1,nonsocial,0,0,0,0,1,,,,,,,,,,
A,B,50,B,,,,,,,,,,,,,,,001,2022-04-05_08h17.17.264,RALT_PLD,2020.2.10,Win32,60,,,,,,A,No,,,,,,,right,0,0.353,Congruent,0,nonsocial,1,0,1,0,1,,,,,,,,,,
A,B,48,B,,,,,,,,,,,,,,,001,2022-04-05_08h17.17.264,RALT_PLD,2020.2.10,Win32,60,,,,,,A,No,,,,,,,right,0,0.3885,Congruent,0,nonsocial,2,0,2,0,1,,,,,,,,,,
A,B,70,B,,,,,,,,,,,,,,,001,2022-04-05_08h17.17.264,RALT_PLD,2020.2.10,Win32,60,,,,,,B,Yes,,,,,,,right,0,0.3082,Congruent,1,nonsocial,3,0,3,0,1,,,,,,,,,,
,,,,,,,,,,,,,,,,,,001,2022-04-05_08h17.17.264,RALT_PLD,2020.2.10,Win32,60,,,,,,,,,,,,,,,,,,,,,,,,,4,0,4,0,1,,,,,
A,B,48,A,,,,,,,,,,,,,,,001,2022-04-05_08h17.17.264,RALT_PLD,2020.2.10,Win32,60,,,,,,A,Yes,,,,,,,left,0,0.3125,Congruent,1,nonsocial,0,0,0,0,1,,,,,,,,,,
A,B,70,A,,,,,,,,,,,,,,,001,2022-04-05_08h17.17.264,RALT_PLD,2020.2.10,Win32,60,,,,,,B,No,,,,,,,left,0,0.4909,Congruent,0,nonsocial,1,0,1,0,1,,,,,,,,,,
A,B,44,B,,,,,,,,,,,,,,,001,2022-04-05_08h17.17.264,RALT_PLD,2020.2.10,Win32,60,,,,,,B,Yes,,,,,,,right,0,0.8299,Congruent,1,nonsocial,2,0,2,0,1,,,,,,,,,,
A,B,50,A,,,,,,,,,,,,,,,001,2022-04-05_08h17.17.264,RALT_PLD,2020.2.10,Win32,60,,,,,,A,Yes,,,,,,,left,0,0.56,Congruent,1,nonsocial,3,0,3,0,1,,,,,,,,,,
,,,,,,,,,,,,,,,,,,001,2022-04-05_08h17.17.264,RALT_PLD,2020.2.10,Win32,60,,,,,,,,,,,,,,,,,,,,,,,,,5,0,5,0,1,,,,,
,,,,,,,,,,,,,,,,,,001,2022-04-05_08h17.17.264,RALT_PLD,2020.2.10,Win32,60,,,,,,,,,,,,,,,,,,,,,,,,,,,,,,0,0,0,0,1
B,A,89,B,,,,,,,,,,,,,,,001,2022-04-05_08h17.17.264,RALT_PLD,2020.2.10,Win32,60,,,,,,B,Yes,,,,,,,left,0,1.167,Congruent,1,social,0,0,0,0,1,,,,,,,,,,
B,A,97,A,,,,,,,,,,,,,,,001,2022-04-05_08h17.17.264,RALT_PLD,2020.2.10,Win32,60,,,,,,A,Yes,,,,,,,right,0,0.7874,Congruent,1,social,1,0,1,0,1,,,,,,,,,,
B,A,45,B,,,,,,,,,,,,,,,001,2022-04-05_08h17.17.264,RALT_PLD,2020.2.10,Win32,60,,,,,,B,Yes,,,,,,,left,0,0.8151,Congruent,1,social,2,0,2,0,1,,,,,,,,,,
B,A,73,A,,,,,,,,,,,,,,,001,2022-04-05_08h17.17.264,RALT_PLD,2020.2.10,Win32,60,,,,,,A,Yes,,,,,,,right,0,0.6662,Incongruent,0,social,3,0,3,0,1,,,,,,,,,,
,,,,,,,,,,,,,,,,,,001,2022-04-05_08h17.17.264,RALT_PLD,2020.2.10,Win32,60,,,,,,,,,,,,,,,,,,,,,,,,,0,0,0,0,1,,,,,
B,A,89,B,,,,,,,,,,,,,,,001,2022-04-05_08h17.17.264,RALT_PLD,2020.2.10,Win32,60,,,,,,B,Yes,,,,,,,left,0,0.9675,Congruent,1,social,0,0,0,0,1,,,,,,,,,,
B,A,45,A,,,,,,,,,,,,,,,001,2022-04-05_08h17.17.264,RALT_PLD,2020.2.10,Win32,60,,,,,,B,No,,,,,,,right,0,0.5955,Incongruent,1,social,1,0,1,0,1,,,,,,,,,,
B,A,73,A,,,,,,,,,,,,,,,001,2022-04-05_08h17.17.264,RALT_PLD,2020.2.10,Win32,60,,,,,,A,Yes,,,,,,,right,0,0.6605,Congruent,1,social,2,0,2,0,1,,,,,,,,,,
B,A,97,A,,,,,,,,,,,,,,,001,2022-04-05_08h17.17.264,RALT_PLD,2020.2.10,Win32,60,,,,,,A,Yes,,,,,,,right,0,0.7523,Congruent,1,social,3,0,3,0,1,,,,,,,,,,
,,,,,,,,,,,,,,,,,,001,2022-04-05_08h17.17.264,RALT_PLD,2020.2.10,Win32,60,,,,,,,,,,,,,,,,,,,,,,,,,1,0,1,0,1,,,,,
B,A,89,B,,,,,,,,,,,,,,,001,2022-04-05_08h17.17.264,RALT_PLD,2020.2.10,Win32,60,,,,,,B,Yes,,,,,,,left,0,0.8132,Congruent,1,social,0,0,0,0,1,,,,,,,,,,
B,A,97,A,,,,,,,,,,,,,,,001,2022-04-05_08h17.17.264,RALT_PLD,2020.2.10,Win32,60,,,,,,A,Yes,,,,,,,right,0,0.303,Congruent,1,social,1,0,1,0,1,,,,,,,,,,
B,A,73,B,,,,,,,,,,,,,,,001,2022-04-05_08h17.17.264,RALT_PLD,2020.2.10,Win32,60,,,,,,A,No,,,,,,,left,0,0.6744,Congruent,0,social,2,0,2,0,1,,,,,,,,,,
B,A,45,A,,,,,,,,,,,,,,,001,2022-04-05_08h17.17.264,RALT_PLD,2020.2.10,Win32,60,,,,,,B,No,,,,,,,right,0,0.7629,Congruent,0,social,3,0,3,0,1,,,,,,,,,,
,,,,,,,,,,,,,,,,,,001,2022-04-05_08h17.17.264,RALT_PLD,2020.2.10,Win32,60,,,,,,,,,,,,,,,,,,,,,,,,,2,0,2,0,1,,,,,
B,A,45,A,,,,,,,,,,,,,,,001,2022-04-05_08h17.17.264,RALT_PLD,2020.2.10,Win32,60,,,,,,B,No,,,,,,,right,0,0.3285,Congruent,0,social,0,0,0,0,1,,,,,,,,,,
B,A,89,B,,,,,,,,,,,,,,,001,2022-04-05_08h17.17.264,RALT_PLD,2020.2.10,Win32,60,,,,,,B,Yes,,,,,,,left,0,0.5408,Congruent,1,social,1,0,1,0,1,,,,,,,,,,
B,A,97,A,,,,,,,,,,,,,,,001,2022-04-05_08h17.17.264,RALT_PLD,2020.2.10,Win32,60,,,,,,A,Yes,,,,,,,right,0,0.3185,Congruent,1,social,2,0,2,0,1,,,,,,,,,,
B,A,73,B,,,,,,,,,,,,,,,001,2022-04-05_08h17.17.264,RALT_PLD,2020.2.10,Win32,60,,,,,,A,No,,,,,,,left,0,0.8162,Incongruent,1,social,3,0,3,0,1,,,,,,,,,,
,,,,,,,,,,,,,,,,,,001,2022-04-05_08h17.17.264,RALT_PLD,2020.2.10,Win32,60,,,,,,,,,,,,,,,,,,,,,,,,,3,0,3,0,1,,,,,
B,A,89,A,,,,,,,,,,,,,,,001,2022-04-05_08h17.17.264,RALT_PLD,2020.2.10,Win32,60,,,,,,B,No,,,,,,,right,0,0.5828,Incongruent,1,social,0,0,0,0,1,,,,,,,,,,
B,A,73,A,,,,,,,,,,,,,,,001,2022-04-05_08h17.17.264,RALT_PLD,2020.2.10,Win32,60,,,,,,A,Yes,,,,,,,right,0,0.5097,Congruent,1,social,1,0,1,0,1,,,,,,,,,,
B,A,45,A,,,,,,,,,,,,,,,001,2022-04-05_08h17.17.264,RALT_PLD,2020.2.10,Win32,60,,,,,,B,No,,,,,,,right,0,0.3247,Congruent,0,social,2,0,2,0,1,,,,,,,,,,
B,A,97,A,,,,,,,,,,,,,,,001,2022-04-05_08h17.17.264,RALT_PLD,2020.2.10,Win32,60,,,,,,A,Yes,,,,,,,right,0,0.2969,Congruent,1,social,3,0,3,0,1,,,,,,,,,,
,,,,,,,,,,,,,,,,,,001,2022-04-05_08h17.17.264,RALT_PLD,2020.2.10,Win32,60,,,,,,,,,,,,,,,,,,,,,,,,,4,0,4,0,1,,,,,
B,A,89,A,,,,,,,,,,,,,,,001,2022-04-05_08h17.17.264,RALT_PLD,2020.2.10,Win32,60,,,,,,B,No,,,,,,,right,0,1.4979,Congruent,0,social,0,0,0,0,1,,,,,,,,,,
B,A,45,B,,,,,,,,,,,,,,,001,2022-04-05_08h17.17.264,RALT_PLD,2020.2.10,Win32,60,,,,,,B,Yes,,,,,,,left,0,0.2972,Congruent,1,social,1,0,1,0,1,,,,,,,,,,
B,A,73,B,,,,,,,,,,,,,,,001,2022-04-05_08h17.17.264,RALT_PLD,2020.2.10,Win32,60,,,,,,A,No,,,,,,,left,0,0.6685,Incongruent,1,social,2,0,2,0,1,,,,,,,,,,
B,A,97,B,,,,,,,,,,,,,,,001,2022-04-05_08h17.17.264,RALT_PLD,2020.2.10,Win32,60,,,,,,A,No,,,,,,,left,0,0.3752,Incongruent,1,social,3,0,3,0,1,,,,,,,,,,
,,,,,,,,,,,,,,,,,,001,2022-04-05_08h17.17.264,RALT_PLD,2020.2.10,Win32,60,,,,,,,,,,,,,,,,,,,,,,,,,5,0,5,0,1,,,,,
,,,,,,,,,,,,,,,,,,001,2022-04-05_08h17.17.264,RALT_PLD,2020.2.10,Win32,60,,,,,,,,,,,,,,,,,,,,,,,,,,,,,,1,0,1,0,1
B,A,44,B,,,,,,,,,,,,,,,001,2022-04-05_08h17.17.264,RALT_PLD,2020.2.10,Win32,60,,,,,,B,Yes,,,,,,,left,0,0.5909,Congruent,1,nonsocial,0,0,0,0,1,,,,,,,,,,
B,A,48,A,,,,,,,,,,,,,,,001,2022-04-05_08h17.17.264,RALT_PLD,2020.2.10,Win32,60,,,,,,A,Yes,,,,,,,right,0,0.3514,Congruent,1,nonsocial,1,0,1,0,1,,,,,,,,,,
B,A,70,B,,,,,,,,,,,,,,,001,2022-04-05_08h17.17.264,RALT_PLD,2020.2.10,Win32,60,,,,,,B,Yes,,,,,,,left,0,0.3322,Congruent,1,nonsocial,2,0,2,0,1,,,,,,,,,,
B,A,50,A,,,,,,,,,,,,,,,001,2022-04-05_08h17.17.264,RALT_PLD,2020.2.10,Win32,60,,,,,,A,Yes,,,,,,,right,0,0.4292,Congruent,1,nonsocial,3,0,3,0,1,,,,,,,,,,
,,,,,,,,,,,,,,,,,,001,2022-04-05_08h17.17.264,RALT_PLD,2020.2.10,Win32,60,,,,,,,,,,,,,,,,,,,,,,,,,0,0,0,0,1,,,,,
B,A,48,A,,,,,,,,,,,,,,,001,2022-04-05_08h17.17.264,RALT_PLD,2020.2.10,Win32,60,,,,,,A,Yes,,,,,,,right,0,0.3385,Congruent,1,nonsocial,0,0,0,0,1,,,,,,,,,,
B,A,44,A,,,,,,,,,,,,,,,001,2022-04-05_08h17.17.264,RALT_PLD,2020.2.10,Win32,60,,,,,,B,No,,,,,,,right,0,0.4588,Congruent,0,nonsocial,1,0,1,0,1,,,,,,,,,,
B,A,70,B,,,,,,,,,,,,,,,001,2022-04-05_08h17.17.264,RALT_PLD,2020.2.10,Win32,60,,,,,,B,Yes,,,,,,,left,0,0.3927,Congruent,1,nonsocial,2,0,2,0,1,,,,,,,,,,
B,A,50,B,,,,,,,,,,,,,,,001,2022-04-05_08h17.17.264,RALT_PLD,2020.2.10,Win32,60,,,,,,A,No,,,,,,,left,0,0.3866,Congruent,0,nonsocial,3,0,3,0,1,,,,,,,,,,
,,,,,,,,,,,,,,,,,,001,2022-04-05_08h17.17.264,RALT_PLD,2020.2.10,Win32,60,,,,,,,,,,,,,,,,,,,,,,,,,1,0,1,0,1,,,,,
A,B,70,A,,,,,,,,,,,,,,,001,2022-04-05_08h17.17.264,RALT_PLD,2020.2.10,Win32,60,,,,,,B,No,,,,,,,left,0,0.831,Congruent,0,nonsocial,0,0,0,0,1,,,,,,,,,,
A,B,48,B,,,,,,,,,,,,,,,001,2022-04-05_08h17.17.264,RALT_PLD,2020.2.10,Win32,60,,,,,,A,No,,,,,,,right,0,0.2851,Congruent,0,nonsocial,1,0,1,0,1,,,,,,,,,,
A,B,44,B,,,,,,,,,,,,,,,001,2022-04-05_08h17.17.264,RALT_PLD,2020.2.10,Win32,60,,,,,,B,Yes,,,,,,,right,0,0.2649,Congruent,1,nonsocial,2,0,2,0,1,,,,,,,,,,
A,B,50,B,,,,,,,,,,,,,,,001,2022-04-05_08h17.17.264,RALT_PLD,2020.2.10,Win32,60,,,,,,A,No,,,,,,,right,0,0.3923,Congruent,0,nonsocial,3,0,3,0,1,,,,,,,,,,
,,,,,,,,,,,,,,,,,,001,2022-04-05_08h17.17.264,RALT_PLD,2020.2.10,Win32,60,,,,,,,,,,,,,,,,,,,,,,,,,2,0,2,0,1,,,,,
B,A,50,A,,,,,,,,,,,,,,,001,2022-04-05_08h17.17.264,RALT_PLD,2020.2.10,Win32,60,,,,,,A,Yes,,,,,,,right,0,0.3159,Incongruent,0,nonsocial,0,0,0,0,1,,,,,,,,,,
B,A,70,A,,,,,,,,,,,,,,,001,2022-04-05_08h17.17.264,RALT_PLD,2020.2.10,Win32,60,,,,,,B,No,,,,,,,right,0,0.3354,Incongruent,1,nonsocial,1,0,1,0,1,,,,,,,,,,
B,A,44,A,,,,,,,,,,,,,,,001,2022-04-05_08h17.17.264,RALT_PLD,2020.2.10,Win32,60,,,,,,B,No,,,,,,,right,0,0.434,Congruent,0,nonsocial,2,0,2,0,1,,,,,,,,,,
B,A,48,A,,,,,,,,,,,,,,,001,2022-04-05_08h17.17.264,RALT_PLD,2020.2.10,Win32,60,,,,,,A,Yes,,,,,,,right,0,0.2249,Congruent,1,nonsocial,3,0,3,0,1,,,,,,,,,,
,,,,,,,,,,,,,,,,,,001,2022-04-05_08h17.17.264,RALT_PLD,2020.2.10,Win32,60,,,,,,,,,,,,,,,,,,,,,,,,,3,0,3,0,1,,,,,
A,B,44,B,,,,,,,,,,,,,,,001,2022-04-05_08h17.17.264,RALT_PLD,2020.2.10,Win32,60,,,,,,B,Yes,,,,,,,right,0,0.3703,Congruent,1,nonsocial,0,0,0,0,1,,,,,,,,,,
A,B,48,B,,,,,,,,,,,,,,,001,2022-04-05_08h17.17.264,RALT_PLD,2020.2.10,Win32,60,,,,,,A,No,,,,,,,right,0,0.4374,Congruent,0,nonsocial,1,0,1,0,1,,,,,,,,,,
A,B,70,A,,,,,,,,,,,,,,,001,2022-04-05_08h17.17.264,RALT_PLD,2020.2.10,Win32,60,,,,,,B,No,,,,,,,left,0,0.297,Congruent,0,nonsocial,2,0,2,0,1,,,,,,,,,,
A,B,50,B,,,,,,,,,,,,,,,001,2022-04-05_08h17.17.264,RALT_PLD,2020.2.10,Win32,60,,,,,,A,No,,,,,,,right,0,0.3406,Congruent,0,nonsocial,3,0,3,0,1,,,,,,,,,,
,,,,,,,,,,,,,,,,,,001,2022-04-05_08h17.17.264,RALT_PLD,2020.2.10,Win32,60,,,,,,,,,,,,,,,,,,,,,,,,,4,0,4,0,1,,,,,
A,B,70,B,,,,,,,,,,,,,,,001,2022-04-05_08h17.17.264,RALT_PLD,2020.2.10,Win32,60,,,,,,B,Yes,,,,,,,right,0,0.8332,Congruent,1,nonsocial,0,0,0,0,1,,,,,,,,,,
A,B,48,A,,,,,,,,,,,,,,,001,2022-04-05_08h17.17.264,RALT_PLD,2020.2.10,Win32,60,,,,,,A,Yes,,,,,,,left,0,0.3217,Congruent,1,nonsocial,1,0,1,0,1,,,,,,,,,,
A,B,50,A,,,,,,,,,,,,,,,001,2022-04-05_08h17.17.264,RALT_PLD,2020.2.10,Win32,60,,,,,,A,Yes,,,,,,,left,0,0.4363,Congruent,1,nonsocial,2,0,2,0,1,,,,,,,,,,
A,B,44,A,,,,,,,,,,,,,,,001,2022-04-05_08h17.17.264,RALT_PLD,2020.2.10,Win32,60,,,,,,B,No,,,,,,,left,0,0.3464,Congruent,0,nonsocial,3,0,3,0,1,,,,,,,,,,
,,,,,,,,,,,,,,,,,,001,2022-04-05_08h17.17.264,RALT_PLD,2020.2.10,Win32,60,,,,,,,,,,,,,,,,,,,,,,,,,5,0,5,0,1,,,,,
,,,,,,,,,,,,,,,,,,001,2022-04-05_08h17.17.264,RALT_PLD,2020.2.10,Win32,60,,,,,,,,,,,,,,,,,,,,,,,,,,,,,,2,0,2,0,1
B,A,97,A,,,,,,,,,,,,,,,001,2022-04-05_08h17.17.264,RALT_PLD,2020.2.10,Win32,60,,,,,,A,Yes,,,,,,,right,0,0.3906,Congruent,1,social,0,0,0,0,1,,,,,,,,,,
B,A,45,B,,,,,,,,,,,,,,,001,2022-04-05_08h17.17.264,RALT_PLD,2020.2.10,Win32,60,,,,,,B,Yes,,,,,,,left,0,0.5914,Congruent,1,social,1,0,1,0,1,,,,,,,,,,
B,A,73,B,,,,,,,,,,,,,,,001,2022-04-05_08h17.17.264,RALT_PLD,2020.2.10,Win32,60,,,,,,A,No,,,,,,,left,0,0.4083,Congruent,0,social,2,0,2,0,1,,,,,,,,,,
B,A,89,A,,,,,,,,,,,,,,,001,2022-04-05_08h17.17.264,RALT_PLD,2020.2.10,Win32,60,,,,,,B,No,,,,,,,right,0,0.4862,Congruent,0,social,3,0,3,0,1,,,,,,,,,,
,,,,,,,,,,,,,,,,,,001,2022-04-05_08h17.17.264,RALT_PLD,2020.2.10,Win32,60,,,,,,,,,,,,,,,,,,,,,,,,,0,0,0,0,1,,,,,
A,B,73,B,,,,,,,,,,,,,,,001,2022-04-05_08h17.17.264,RALT_PLD,2020.2.10,Win32,60,,,,,,A,No,,,,,,,right,0,0.3667,Congruent,0,social,0,0,0,0,1,,,,,,,,,,
A,B,97,B,,,,,,,,,,,,,,,001,2022-04-05_08h17.17.264,RALT_PLD,2020.2.10,Win32,60,,,,,,A,No,,,,,,,right,0,0.3795,Congruent,0,social,1,0,1,0,1,,,,,,,,,,
A,B,89,A,,,,,,,,,,,,,,,001,2022-04-05_08h17.17.264,RALT_PLD,2020.2.10,Win32,60,,,,,,B,No,,,,,,,left,0,0.357,Congruent,0,social,2,0,2,0,1,,,,,,,,,,
A,B,45,B,,,,,,,,,,,,,,,001,2022-04-05_08h17.17.264,RALT_PLD,2020.2.10,Win32,60,,,,,,B,Yes,,,,,,,right,0,0.4381,Congruent,1,social,3,0,3,0,1,,,,,,,,,,
,,,,,,,,,,,,,,,,,,001,2022-04-05_08h17.17.264,RALT_PLD,2020.2.10,Win32,60,,,,,,,,,,,,,,,,,,,,,,,,,1,0,1,0,1,,,,,
B,A,97,A,,,,,,,,,,,,,,,001,2022-04-05_08h17.17.264,RALT_PLD,2020.2.10,Win32,60,,,,,,A,Yes,,,,,,,right,0,0.5746,Congruent,1,social,0,0,0,0,1,,,,,,,,,,
B,A,89,B,,,,,,,,,,,,,,,001,2022-04-05_08h17.17.264,RALT_PLD,2020.2.10,Win32,60,,,,,,B,Yes,,,,,,,left,0,0.4627,Congruent,1,social,1,0,1,0,1,,,,,,,,,,
B,A,45,A,,,,,,,,,,,,,,,001,2022-04-05_08h17.17.264,RALT_PLD,2020.2.10,Win32,60,,,,,,B,No,,,,,,,right,0,0.3404,Congruent,0,social,2,0,2,0,1,,,,,,,,,,
B,A,73,A,,,,,,,,,,,,,,,001,2022-04-05_08h17.17.264,RALT_PLD,2020.2.10,Win32,60,,,,,,A,Yes,,,,,,,right,0,0.4789,Congruent,1,social,3,0,3,0,1,,,,,,,,,,
,,,,,,,,,,,,,,,,,,001,2022-04-05_08h17.17.264,RALT_PLD,2020.2.10,Win32,60,,,,,,,,,,,,,,,,,,,,,,,,,2,0,2,0,1,,,,,
B,A,73,A,,,,,,,,,,,,,,,001,2022-04-05_08h17.17.264,RALT_PLD,2020.2.10,Win32,60,,,,,,A,Yes,,,,,,,right,0,0.4301,Congruent,1,social,0,0,0,0,1,,,,,,,,,,
B,A,89,B,,,,,,,,,,,,,,,001,2022-04-05_08h17.17.264,RALT_PLD,2020.2.10,Win32,60,,,,,,B,Yes,,,,,,,left,0,0.3231,Congruent,1,social,1,0,1,0,1,,,,,,,,,,
B,A,97,A,,,,,,,,,,,,,,,001,2022-04-05_08h17.17.264,RALT_PLD,2020.2.10,Win32,60,,,,,,A,Yes,,,,,,,right,0,0.3364,Congruent,1,social,2,0,2,0,1,,,,,,,,,,
B,A,45,A,,,,,,,,,,,,,,,001,2022-04-05_08h17.17.264,RALT_PLD,2020.2.10,Win32,60,,,,,,B,No,,,,,,,right,0,0.4183,Congruent,0,social,3,0,3,0,1,,,,,,,,,,
,,,,,,,,,,,,,,,,,,001,2022-04-05_08h17.17.264,RALT_PLD,2020.2.10,Win32,60,,,,,,,,,,,,,,,,,,,,,,,,,3,0,3,0,1,,,,,
B,A,45,A,,,,,,,,,,,,,,,001,2022-04-05_08h17.17.264,RALT_PLD,2020.2.10,Win32,60,,,,,,B,No,,,,,,,right,0,0.4573,Congruent,0,social,0,0,0,0,1,,,,,,,,,,
B,A,97,A,,,,,,,,,,,,,,,001,2022-04-05_08h17.17.264,RALT_PLD,2020.2.10,Win32,60,,,,,,A,Yes,,,,,,,right,0,0.5792,Congruent,1,social,1,0,1,0,1,,,,,,,,,,
B,A,73,A,,,,,,,,,,,,,,,001,2022-04-05_08h17.17.264,RALT_PLD,2020.2.10,Win32,60,,,,,,A,Yes,,,,,,,right,0,0.3546,Congruent,1,social,2,0,2,0,1,,,,,,,,,,
B,A,89,A,,,,,,,,,,,,,,,001,2022-04-05_08h17.17.264,RALT_PLD,2020.2.10,Win32,60,,,,,,B,No,,,,,,,right,0,0.3871,Congruent,0,social,3,0,3,0,1,,,,,,,,,,
,,,,,,,,,,,,,,,,,,001,2022-04-05_08h17.17.264,RALT_PLD,2020.2.10,Win32,60,,,,,,,,,,,,,,,,,,,,,,,,,4,0,4,0,1,,,,,
A,B,97,B,,,,,,,,,,,,,,,001,2022-04-05_08h17.17.264,RALT_PLD,2020.2.10,Win32,60,,,,,,A,No,,,,,,,right,0,0.8462,Incongruent,1,social,0,0,0,0,1,,,,,,,,,,
A,B,73,B,,,,,,,,,,,,,,,001,2022-04-05_08h17.17.264,RALT_PLD,2020.2.10,Win32,60,,,,,,A,No,,,,,,,right,0,0.2552,Incongruent,1,social,1,0,1,0,1,,,,,,,,,,
A,B,89,A,,,,,,,,,,,,,,,001,2022-04-05_08h17.17.264,RALT_PLD,2020.2.10,Win32,60,,,,,,B,No,,,,,,,left,0,0.369,Congruent,0,social,2,0,2,0,1,,,,,,,,,,
A,B,45,A,,,,,,,,,,,,,,,001,2022-04-05_08h17.17.264,RALT_PLD,2020.2.10,Win32,60,,,,,,B,No,,,,,,,left,0,0.3099,Congruent,0,social,3,0,3,0,1,,,,,,,,,,
,,,,,,,,,,,,,,,,,,001,2022-04-05_08h17.17.264,RALT_PLD,2020.2.10,Win32,60,,,,,,,,,,,,,,,,,,,,,,,,,5,0,5,0,1,,,,,
,,,,,,,,,,,,,,,,,,001,2022-04-05_08h17.17.264,RALT_PLD,2020.2.10,Win32,60,,,,,,,,,,,,,,,,,,,,,,,,,,,,,,3,0,3,0,1
