left,right,stim,ParticipantAnswer,response_training.keys,response_training.corr,response_training.rt,training_social.thisRepN,training_social.thisTrialN,training_social.thisN,training_social.thisIndex,training_social.ran,Stim,filename_neutral,filename_feedback_happy,filename_feedback_angry,CorrCatTrain,participant,session,date,expName,psychopyVersion,OS,frameRate,training_nonsocial.thisRepN,training_nonsocial.thisTrialN,training_nonsocial.thisN,training_nonsocial.thisIndex,training_nonsocial.ran,CorrCat,CorrectAns,prob_fb.thisRepN,prob_fb.thisTrialN,prob_fb.thisN,prob_fb.thisIndex,prob_fb.ran,CorrCatProb,response_training_2.keys,response_training_2.corr,response_training_2.rt,Congr/Incongr,Reward,BlockType,trials.thisRepN,trials.thisTrialN,trials.thisN,trials.thisIndex,trials.ran,cycles.thisRepN,cycles.thisTrialN,cycles.thisN,cycles.thisIndex,cycles.ran,blocks.thisRepN,blocks.thisTrialN,blocks.thisN,blocks.thisIndex,blocks.ran
A,B,38,A,left,0,0.8733,0,0,0,3,1,38,Stimuli/neutral/Still.jpg,Stimuli/social/happy/M02-Happy Man.mp4,Stimuli/social/angry/M06-Angry Man.mp4,B,nedo99,001,2022-04-08_13h59.17.104,RALT_PLD,2020.2.10,Win32,60,,,,,,,,,,,,,,,,,,,,,,,,,,,,,,,,,,
A,B,99,A,left,0,1.7487,0,1,1,0,1,99,Stimuli/neutral/Still.jpg,Stimuli/social/happy/F01-Happy Women.mp4,Stimuli/social/angry/F04-Angry Women.mp4,A,nedo99,001,2022-04-08_13h59.17.104,RALT_PLD,2020.2.10,Win32,60,,,,,,,,,,,,,,,,,,,,,,,,,,,,,,,,,,
A,B,38,B,right,0,1.8765,0,2,2,1,1,38,Stimuli/neutral/Still.jpg,Stimuli/social/happy/M02-Happy Man.mp4,Stimuli/social/angry/M06-Angry Man.mp4,A,nedo99,001,2022-04-08_13h59.17.104,RALT_PLD,2020.2.10,Win32,60,,,,,,,,,,,,,,,,,,,,,,,,,,,,,,,,,,
A,B,91,B,right,0,1.6988,0,3,3,2,1,91,Stimuli/neutral/Still.jpg,Stimuli/social/happy/F01-Happy Women.mp4,Stimuli/social/angry/F04-Angry Women.mp4,B,nedo99,001,2022-04-08_13h59.17.104,RALT_PLD,2020.2.10,Win32,60,,,,,,,,,,,,,,,,,,,,,,,,,,,,,,,,,,
A,B,43,A,left,0,1.5216,,,,,,43,Stimuli/neutral/Still.jpg,Stimuli/nonsocial/Right Tick.mp4,Stimuli/nonsocial/Wrong Tick.mp4,A,nedo99,001,2022-04-08_13h59.17.104,RALT_PLD,2020.2.10,Win32,60,0,0,0,2,1,,,,,,,,,,,,,,,,,,,,,,,,,,,,,
A,B,39,A,left,0,0.9949,,,,,,39,Stimuli/neutral/Still.jpg,Stimuli/nonsocial/Right Tick.mp4,Stimuli/nonsocial/Wrong Tick.mp4,B,nedo99,001,2022-04-08_13h59.17.104,RALT_PLD,2020.2.10,Win32,60,0,1,1,3,1,,,,,,,,,,,,,,,,,,,,,,,,,,,,,
A,B,98,A,left,0,2.2368,,,,,,98,Stimuli/neutral/Still.jpg,Stimuli/nonsocial/Right Tick.mp4,Stimuli/nonsocial/Wrong Tick.mp4,B,nedo99,001,2022-04-08_13h59.17.104,RALT_PLD,2020.2.10,Win32,60,0,2,2,0,1,,,,,,,,,,,,,,,,,,,,,,,,,,,,,
A,B,53,A,left,0,2.0989,,,,,,53,Stimuli/neutral/Still.jpg,Stimuli/nonsocial/Right Tick.mp4,Stimuli/nonsocial/Wrong Tick.mp4,A,nedo99,001,2022-04-08_13h59.17.104,RALT_PLD,2020.2.10,Win32,60,0,3,3,1,1,,,,,,,,,,,,,,,,,,,,,,,,,,,,,
A,B,38,A,left,0,2.5631,,,,,,38,Stimuli/neutral/Still.jpg,Stimuli/social/happy/M02-Happy Man.mp4,Stimuli/social/angry/M06-Angry Man.mp4,,nedo99,001,2022-04-08_13h59.17.104,RALT_PLD,2020.2.10,Win32,60,,,,,,"[[""B"",""A"",""B"",""A""],[""B"",""B"",""A"",""A""]]",Yes,0,0,0,1,1,A,,,,,,,,,,,,,,,,,,,,,
A,B,91,B,right,0,1.1149,,,,,,91,Stimuli/neutral/Still.jpg,Stimuli/social/happy/F01-Happy Women.mp4,Stimuli/social/angry/F04-Angry Women.mp4,,nedo99,001,2022-04-08_13h59.17.104,RALT_PLD,2020.2.10,Win32,60,,,,,,"[[""B"",""A"",""B"",""A""],[""B"",""B"",""A"",""A""]]",Yes,0,1,1,2,1,B,,,,,,,,,,,,,,,,,,,,,
A,B,38,A,left,0,0.6094,,,,,,38,Stimuli/neutral/Still.jpg,Stimuli/social/happy/M02-Happy Man.mp4,Stimuli/social/angry/M06-Angry Man.mp4,,nedo99,001,2022-04-08_13h59.17.104,RALT_PLD,2020.2.10,Win32,60,,,,,,"[[""B"",""A"",""B"",""A""],[""B"",""B"",""A"",""A""]]",No,0,2,2,3,1,B,,,,,,,,,,,,,,,,,,,,,
A,B,99,B,right,0,0.9634,,,,,,99,Stimuli/neutral/Still.jpg,Stimuli/social/happy/F01-Happy Women.mp4,Stimuli/social/angry/F04-Angry Women.mp4,,nedo99,001,2022-04-08_13h59.17.104,RALT_PLD,2020.2.10,Win32,60,,,,,,"[[""B"",""A"",""B"",""A""],[""B"",""B"",""A"",""A""]]",No,0,3,3,0,1,A,,,,,,,,,,,,,,,,,,,,,
B,A,82,B,,,,,,,,,,,,,,nedo99,001,2022-04-08_13h59.17.104,RALT_PLD,2020.2.10,Win32,60,,,,,,A,No,,,,,,,left,0,2.7232,Congruent,0,social,0,0,0,0,1,,,,,,,,,,
B,A,40,A,,,,,,,,,,,,,,nedo99,001,2022-04-08_13h59.17.104,RALT_PLD,2020.2.10,Win32,60,,,,,,A,Yes,,,,,,,right,0,1.3872,Congruent,1,social,1,0,1,0,1,,,,,,,,,,
B,A,60,B,,,,,,,,,,,,,,nedo99,001,2022-04-08_13h59.17.104,RALT_PLD,2020.2.10,Win32,60,,,,,,B,Yes,,,,,,,left,0,0.9397,Congruent,1,social,2,0,2,0,1,,,,,,,,,,
B,A,70,A,,,,,,,,,,,,,,nedo99,001,2022-04-08_13h59.17.104,RALT_PLD,2020.2.10,Win32,60,,,,,,B,No,,,,,,,right,0,0.8167,Congruent,0,social,3,0,3,0,1,,,,,,,,,,
,,,,,,,,,,,,,,,,,nedo99,001,2022-04-08_13h59.17.104,RALT_PLD,2020.2.10,Win32,60,,,,,,,,,,,,,,,,,,,,,,,,,0,0,0,0,1,,,,,
A,B,82,A,,,,,,,,,,,,,,nedo99,001,2022-04-08_13h59.17.104,RALT_PLD,2020.2.10,Win32,60,,,,,,A,Yes,,,,,,,left,0,1.1624,Congruent,1,social,0,0,0,0,1,,,,,,,,,,
A,B,60,B,,,,,,,,,,,,,,nedo99,001,2022-04-08_13h59.17.104,RALT_PLD,2020.2.10,Win32,60,,,,,,B,Yes,,,,,,,right,0,0.9791,Congruent,1,social,1,0,1,0,1,,,,,,,,,,
A,B,40,A,,,,,,,,,,,,,,nedo99,001,2022-04-08_13h59.17.104,RALT_PLD,2020.2.10,Win32,60,,,,,,A,Yes,,,,,,,left,0,0.9917,Congruent,1,social,2,0,2,0,1,,,,,,,,,,
A,B,70,B,,,,,,,,,,,,,,nedo99,001,2022-04-08_13h59.17.104,RALT_PLD,2020.2.10,Win32,60,,,,,,B,Yes,,,,,,,right,0,1.2111,Congruent,1,social,3,0,3,0,1,,,,,,,,,,
,,,,,,,,,,,,,,,,,nedo99,001,2022-04-08_13h59.17.104,RALT_PLD,2020.2.10,Win32,60,,,,,,,,,,,,,,,,,,,,,,,,,1,0,1,0,1,,,,,
A,B,60,B,,,,,,,,,,,,,,nedo99,001,2022-04-08_13h59.17.104,RALT_PLD,2020.2.10,Win32,60,,,,,,B,Yes,,,,,,,right,0,1.0736,Congruent,1,social,0,0,0,0,1,,,,,,,,,,
A,B,82,A,,,,,,,,,,,,,,nedo99,001,2022-04-08_13h59.17.104,RALT_PLD,2020.2.10,Win32,60,,,,,,A,Yes,,,,,,,left,0,0.6067,Congruent,1,social,1,0,1,0,1,,,,,,,,,,
A,B,70,B,,,,,,,,,,,,,,nedo99,001,2022-04-08_13h59.17.104,RALT_PLD,2020.2.10,Win32,60,,,,,,B,Yes,,,,,,,right,0,3.0987,Congruent,1,social,2,0,2,0,1,,,,,,,,,,
A,B,40,A,,,,,,,,,,,,,,nedo99,001,2022-04-08_13h59.17.104,RALT_PLD,2020.2.10,Win32,60,,,,,,A,Yes,,,,,,,left,0,0.7954,Congruent,1,social,3,0,3,0,1,,,,,,,,,,
,,,,,,,,,,,,,,,,,nedo99,001,2022-04-08_13h59.17.104,RALT_PLD,2020.2.10,Win32,60,,,,,,,,,,,,,,,,,,,,,,,,,2,0,2,0,1,,,,,
A,B,70,B,,,,,,,,,,,,,,nedo99,001,2022-04-08_13h59.17.104,RALT_PLD,2020.2.10,Win32,60,,,,,,B,Yes,,,,,,,right,0,1.0516,Congruent,1,social,0,0,0,0,1,,,,,,,,,,
A,B,82,A,,,,,,,,,,,,,,nedo99,001,2022-04-08_13h59.17.104,RALT_PLD,2020.2.10,Win32,60,,,,,,A,Yes,,,,,,,left,0,1.1757,Congruent,1,social,1,0,1,0,1,,,,,,,,,,
A,B,40,A,,,,,,,,,,,,,,nedo99,001,2022-04-08_13h59.17.104,RALT_PLD,2020.2.10,Win32,60,,,,,,A,Yes,,,,,,,left,0,1.1626,Congruent,1,social,2,0,2,0,1,,,,,,,,,,
A,B,60,B,,,,,,,,,,,,,,nedo99,001,2022-04-08_13h59.17.104,RALT_PLD,2020.2.10,Win32,60,,,,,,B,Yes,,,,,,,right,0,1.9426,Congruent,1,social,3,0,3,0,1,,,,,,,,,,
,,,,,,,,,,,,,,,,,nedo99,001,2022-04-08_13h59.17.104,RALT_PLD,2020.2.10,Win32,60,,,,,,,,,,,,,,,,,,,,,,,,,3,0,3,0,1,,,,,
B,A,40,A,,,,,,,,,,,,,,nedo99,001,2022-04-08_13h59.17.104,RALT_PLD,2020.2.10,Win32,60,,,,,,A,Yes,,,,,,,right,0,1.1516,Incongruent,0,social,0,0,0,0,1,,,,,,,,,,
B,A,82,A,,,,,,,,,,,,,,nedo99,001,2022-04-08_13h59.17.104,RALT_PLD,2020.2.10,Win32,60,,,,,,A,Yes,,,,,,,right,0,0.724,Congruent,1,social,1,0,1,0,1,,,,,,,,,,
B,A,60,B,,,,,,,,,,,,,,nedo99,001,2022-04-08_13h59.17.104,RALT_PLD,2020.2.10,Win32,60,,,,,,B,Yes,,,,,,,left,0,0.8713,Congruent,1,social,2,0,2,0,1,,,,,,,,,,
B,A,70,B,,,,,,,,,,,,,,nedo99,001,2022-04-08_13h59.17.104,RALT_PLD,2020.2.10,Win32,60,,,,,,B,Yes,,,,,,,left,0,0.985,Congruent,1,social,3,0,3,0,1,,,,,,,,,,
,,,,,,,,,,,,,,,,,nedo99,001,2022-04-08_13h59.17.104,RALT_PLD,2020.2.10,Win32,60,,,,,,,,,,,,,,,,,,,,,,,,,4,0,4,0,1,,,,,
A,B,40,A,,,,,,,,,,,,,,nedo99,001,2022-04-08_13h59.17.104,RALT_PLD,2020.2.10,Win32,60,,,,,,A,Yes,,,,,,,left,0,0.9403,Congruent,1,social,0,0,0,0,1,,,,,,,,,,
A,B,60,B,,,,,,,,,,,,,,nedo99,001,2022-04-08_13h59.17.104,RALT_PLD,2020.2.10,Win32,60,,,,,,B,Yes,,,,,,,right,0,0.7336,Congruent,1,social,1,0,1,0,1,,,,,,,,,,
A,B,82,A,,,,,,,,,,,,,,nedo99,001,2022-04-08_13h59.17.104,RALT_PLD,2020.2.10,Win32,60,,,,,,A,Yes,,,,,,,left,0,1.1276,Congruent,1,social,2,0,2,0,1,,,,,,,,,,
A,B,70,B,,,,,,,,,,,,,,nedo99,001,2022-04-08_13h59.17.104,RALT_PLD,2020.2.10,Win32,60,,,,,,B,Yes,,,,,,,right,0,1.0445,Congruent,1,social,3,0,3,0,1,,,,,,,,,,
,,,,,,,,,,,,,,,,,nedo99,001,2022-04-08_13h59.17.104,RALT_PLD,2020.2.10,Win32,60,,,,,,,,,,,,,,,,,,,,,,,,,5,0,5,0,1,,,,,
,,,,,,,,,,,,,,,,,nedo99,001,2022-04-08_13h59.17.104,RALT_PLD,2020.2.10,Win32,60,,,,,,,,,,,,,,,,,,,,,,,,,,,,,,0,0,0,0,1
A,B,81,A,,,,,,,,,,,,,,nedo99,001,2022-04-08_13h59.17.104,RALT_PLD,2020.2.10,Win32,60,,,,,,B,No,,,,,,,left,0,2.394,Congruent,0,nonsocial,0,0,0,0,1,,,,,,,,,,
A,B,63,B,,,,,,,,,,,,,,nedo99,001,2022-04-08_13h59.17.104,RALT_PLD,2020.2.10,Win32,60,,,,,,A,No,,,,,,,right,0,1.2016,Congruent,0,nonsocial,1,0,1,0,1,,,,,,,,,,
A,B,99,A,,,,,,,,,,,,,,nedo99,001,2022-04-08_13h59.17.104,RALT_PLD,2020.2.10,Win32,60,,,,,,A,Yes,,,,,,,left,0,0.4446,Congruent,1,nonsocial,2,0,2,0,1,,,,,,,,,,
A,B,75,B,,,,,,,,,,,,,,nedo99,001,2022-04-08_13h59.17.104,RALT_PLD,2020.2.10,Win32,60,,,,,,B,Yes,,,,,,,right,0,0.5275,Congruent,1,nonsocial,3,0,3,0,1,,,,,,,,,,
,,,,,,,,,,,,,,,,,nedo99,001,2022-04-08_13h59.17.104,RALT_PLD,2020.2.10,Win32,60,,,,,,,,,,,,,,,,,,,,,,,,,0,0,0,0,1,,,,,
B,A,81,B,,,,,,,,,,,,,,nedo99,001,2022-04-08_13h59.17.104,RALT_PLD,2020.2.10,Win32,60,,,,,,B,Yes,,,,,,,left,0,1.9131,Congruent,1,nonsocial,0,0,0,0,1,,,,,,,,,,
B,A,75,B,,,,,,,,,,,,,,nedo99,001,2022-04-08_13h59.17.104,RALT_PLD,2020.2.10,Win32,60,,,,,,B,Yes,,,,,,,left,0,1.6085,Congruent,1,nonsocial,1,0,1,0,1,,,,,,,,,,
B,A,99,A,,,,,,,,,,,,,,nedo99,001,2022-04-08_13h59.17.104,RALT_PLD,2020.2.10,Win32,60,,,,,,A,Yes,,,,,,,right,0,0.8149,Congruent,1,nonsocial,2,0,2,0,1,,,,,,,,,,
B,A,63,A,,,,,,,,,,,,,,nedo99,001,2022-04-08_13h59.17.104,RALT_PLD,2020.2.10,Win32,60,,,,,,A,Yes,,,,,,,right,0,0.7465,Congruent,1,nonsocial,3,0,3,0,1,,,,,,,,,,
,,,,,,,,,,,,,,,,,nedo99,001,2022-04-08_13h59.17.104,RALT_PLD,2020.2.10,Win32,60,,,,,,,,,,,,,,,,,,,,,,,,,1,0,1,0,1,,,,,
A,B,63,A,,,,,,,,,,,,,,nedo99,001,2022-04-08_13h59.17.104,RALT_PLD,2020.2.10,Win32,60,,,,,,A,Yes,,,,,,,left,0,0.9031,Congruent,1,nonsocial,0,0,0,0,1,,,,,,,,,,
A,B,75,B,,,,,,,,,,,,,,nedo99,001,2022-04-08_13h59.17.104,RALT_PLD,2020.2.10,Win32,60,,,,,,B,Yes,,,,,,,right,0,0.7704,Congruent,1,nonsocial,1,0,1,0,1,,,,,,,,,,
A,B,81,B,,,,,,,,,,,,,,nedo99,001,2022-04-08_13h59.17.104,RALT_PLD,2020.2.10,Win32,60,,,,,,B,Yes,,,,,,,right,0,0.9779,Incongruent,0,nonsocial,2,0,2,0,1,,,,,,,,,,
A,B,99,A,,,,,,,,,,,,,,nedo99,001,2022-04-08_13h59.17.104,RALT_PLD,2020.2.10,Win32,60,,,,,,A,Yes,,,,,,,left,0,1.1695,Incongruent,0,nonsocial,3,0,3,0,1,,,,,,,,,,
,,,,,,,,,,,,,,,,,nedo99,001,2022-04-08_13h59.17.104,RALT_PLD,2020.2.10,Win32,60,,,,,,,,,,,,,,,,,,,,,,,,,2,0,2,0,1,,,,,
A,B,99,A,,,,,,,,,,,,,,nedo99,001,2022-04-08_13h59.17.104,RALT_PLD,2020.2.10,Win32,60,,,,,,A,Yes,,,,,,,left,0,0.892,Congruent,1,nonsocial,0,0,0,0,1,,,,,,,,,,
A,B,81,B,,,,,,,,,,,,,,nedo99,001,2022-04-08_13h59.17.104,RALT_PLD,2020.2.10,Win32,60,,,,,,B,Yes,,,,,,,right,0,1.3822,Congruent,1,nonsocial,1,0,1,0,1,,,,,,,,,,
A,B,63,A,,,,,,,,,,,,,,nedo99,001,2022-04-08_13h59.17.104,RALT_PLD,2020.2.10,Win32,60,,,,,,A,Yes,,,,,,,left,0,0.8098,Congruent,1,nonsocial,2,0,2,0,1,,,,,,,,,,
A,B,75,B,,,,,,,,,,,,,,nedo99,001,2022-04-08_13h59.17.104,RALT_PLD,2020.2.10,Win32,60,,,,,,B,Yes,,,,,,,right,0,1.323,Congruent,1,nonsocial,3,0,3,0,1,,,,,,,,,,
,,,,,,,,,,,,,,,,,nedo99,001,2022-04-08_13h59.17.104,RALT_PLD,2020.2.10,Win32,60,,,,,,,,,,,,,,,,,,,,,,,,,3,0,3,0,1,,,,,
B,A,63,A,,,,,,,,,,,,,,nedo99,001,2022-04-08_13h59.17.104,RALT_PLD,2020.2.10,Win32,60,,,,,,A,Yes,,,,,,,right,0,1.4344,Congruent,1,nonsocial,0,0,0,0,1,,,,,,,,,,
B,A,75,B,,,,,,,,,,,,,,nedo99,001,2022-04-08_13h59.17.104,RALT_PLD,2020.2.10,Win32,60,,,,,,B,Yes,,,,,,,left,0,1.1073,Congruent,1,nonsocial,1,0,1,0,1,,,,,,,,,,
B,A,81,B,,,,,,,,,,,,,,nedo99,001,2022-04-08_13h59.17.104,RALT_PLD,2020.2.10,Win32,60,,,,,,B,Yes,,,,,,,left,0,1.0666,Congruent,1,nonsocial,2,0,2,0,1,,,,,,,,,,
B,A,99,A,,,,,,,,,,,,,,nedo99,001,2022-04-08_13h59.17.104,RALT_PLD,2020.2.10,Win32,60,,,,,,A,Yes,,,,,,,right,0,0.7738,Congruent,1,nonsocial,3,0,3,0,1,,,,,,,,,,
,,,,,,,,,,,,,,,,,nedo99,001,2022-04-08_13h59.17.104,RALT_PLD,2020.2.10,Win32,60,,,,,,,,,,,,,,,,,,,,,,,,,4,0,4,0,1,,,,,
B,A,63,A,,,,,,,,,,,,,,nedo99,001,2022-04-08_13h59.17.104,RALT_PLD,2020.2.10,Win32,60,,,,,,A,Yes,,,,,,,right,0,1.1745,Congruent,1,nonsocial,0,0,0,0,1,,,,,,,,,,
B,A,99,A,,,,,,,,,,,,,,nedo99,001,2022-04-08_13h59.17.104,RALT_PLD,2020.2.10,Win32,60,,,,,,A,Yes,,,,,,,right,0,2.0849,Congruent,1,nonsocial,1,0,1,0,1,,,,,,,,,,
B,A,81,B,,,,,,,,,,,,,,nedo99,001,2022-04-08_13h59.17.104,RALT_PLD,2020.2.10,Win32,60,,,,,,B,Yes,,,,,,,left,0,0.7969,Congruent,1,nonsocial,2,0,2,0,1,,,,,,,,,,
B,A,75,B,,,,,,,,,,,,,,nedo99,001,2022-04-08_13h59.17.104,RALT_PLD,2020.2.10,Win32,60,,,,,,B,Yes,,,,,,,left,0,0.908,Congruent,1,nonsocial,3,0,3,0,1,,,,,,,,,,
,,,,,,,,,,,,,,,,,nedo99,001,2022-04-08_13h59.17.104,RALT_PLD,2020.2.10,Win32,60,,,,,,,,,,,,,,,,,,,,,,,,,5,0,5,0,1,,,,,
,,,,,,,,,,,,,,,,,nedo99,001,2022-04-08_13h59.17.104,RALT_PLD,2020.2.10,Win32,60,,,,,,,,,,,,,,,,,,,,,,,,,,,,,,1,0,1,0,1
A,B,70,A,,,,,,,,,,,,,,nedo99,001,2022-04-08_13h59.17.104,RALT_PLD,2020.2.10,Win32,60,,,,,,B,No,,,,,,,left,0,0.8578,Congruent,0,social,0,0,0,0,1,,,,,,,,,,
A,B,60,B,,,,,,,,,,,,,,nedo99,001,2022-04-08_13h59.17.104,RALT_PLD,2020.2.10,Win32,60,,,,,,B,Yes,,,,,,,right,0,2.4692,Congruent,1,social,1,0,1,0,1,,,,,,,,,,
A,B,40,A,,,,,,,,,,,,,,nedo99,001,2022-04-08_13h59.17.104,RALT_PLD,2020.2.10,Win32,60,,,,,,A,Yes,,,,,,,left,0,0.5642,Congruent,1,social,2,0,2,0,1,,,,,,,,,,
A,B,82,A,,,,,,,,,,,,,,nedo99,001,2022-04-08_13h59.17.104,RALT_PLD,2020.2.10,Win32,60,,,,,,A,Yes,,,,,,,left,0,1.0163,Congruent,1,social,3,0,3,0,1,,,,,,,,,,
,,,,,,,,,,,,,,,,,nedo99,001,2022-04-08_13h59.17.104,RALT_PLD,2020.2.10,Win32,60,,,,,,,,,,,,,,,,,,,,,,,,,0,0,0,0,1,,,,,
B,A,40,A,,,,,,,,,,,,,,nedo99,001,2022-04-08_13h59.17.104,RALT_PLD,2020.2.10,Win32,60,,,,,,A,Yes,,,,,,,right,0,1.2637,Congruent,1,social,0,0,0,0,1,,,,,,,,,,
B,A,70,B,,,,,,,,,,,,,,nedo99,001,2022-04-08_13h59.17.104,RALT_PLD,2020.2.10,Win32,60,,,,,,B,Yes,,,,,,,left,0,2.3308,Congruent,1,social,1,0,1,0,1,,,,,,,,,,
B,A,60,B,,,,,,,,,,,,,,nedo99,001,2022-04-08_13h59.17.104,RALT_PLD,2020.2.10,Win32,60,,,,,,B,Yes,,,,,,,left,0,1.3624,Congruent,1,social,2,0,2,0,1,,,,,,,,,,
B,A,82,A,,,,,,,,,,,,,,nedo99,001,2022-04-08_13h59.17.104,RALT_PLD,2020.2.10,Win32,60,,,,,,A,Yes,,,,,,,right,0,0.7786,Congruent,1,social,3,0,3,0,1,,,,,,,,,,
,,,,,,,,,,,,,,,,,nedo99,001,2022-04-08_13h59.17.104,RALT_PLD,2020.2.10,Win32,60,,,,,,,,,,,,,,,,,,,,,,,,,1,0,1,0,1,,,,,
A,B,60,B,,,,,,,,,,,,,,nedo99,001,2022-04-08_13h59.17.104,RALT_PLD,2020.2.10,Win32,60,,,,,,B,Yes,,,,,,,right,0,0.9767,Congruent,1,social,0,0,0,0,1,,,,,,,,,,
A,B,40,A,,,,,,,,,,,,,,nedo99,001,2022-04-08_13h59.17.104,RALT_PLD,2020.2.10,Win32,60,,,,,,A,Yes,,,,,,,left,0,0.6656,Incongruent,0,social,1,0,1,0,1,,,,,,,,,,
A,B,82,A,,,,,,,,,,,,,,nedo99,001,2022-04-08_13h59.17.104,RALT_PLD,2020.2.10,Win32,60,,,,,,A,Yes,,,,,,,left,0,0.9588,Congruent,1,social,2,0,2,0,1,,,,,,,,,,
A,B,70,B,,,,,,,,,,,,,,nedo99,001,2022-04-08_13h59.17.104,RALT_PLD,2020.2.10,Win32,60,,,,,,B,Yes,,,,,,,right,0,1.1802,Congruent,1,social,3,0,3,0,1,,,,,,,,,,
,,,,,,,,,,,,,,,,,nedo99,001,2022-04-08_13h59.17.104,RALT_PLD,2020.2.10,Win32,60,,,,,,,,,,,,,,,,,,,,,,,,,2,0,2,0,1,,,,,
B,A,70,B,,,,,,,,,,,,,,nedo99,001,2022-04-08_13h59.17.104,RALT_PLD,2020.2.10,Win32,60,,,,,,B,Yes,,,,,,,left,0,1.0038,Congruent,1,social,0,0,0,0,1,,,,,,,,,,
B,A,82,A,,,,,,,,,,,,,,nedo99,001,2022-04-08_13h59.17.104,RALT_PLD,2020.2.10,Win32,60,,,,,,A,Yes,,,,,,,right,0,0.623,Congruent,1,social,1,0,1,0,1,,,,,,,,,,
B,A,40,A,,,,,,,,,,,,,,nedo99,001,2022-04-08_13h59.17.104,RALT_PLD,2020.2.10,Win32,60,,,,,,A,Yes,,,,,,,right,0,0.8301,Incongruent,0,social,2,0,2,0,1,,,,,,,,,,
B,A,60,B,,,,,,,,,,,,,,nedo99,001,2022-04-08_13h59.17.104,RALT_PLD,2020.2.10,Win32,60,,,,,,B,Yes,,,,,,,left,0,0.9049,Congruent,1,social,3,0,3,0,1,,,,,,,,,,
,,,,,,,,,,,,,,,,,nedo99,001,2022-04-08_13h59.17.104,RALT_PLD,2020.2.10,Win32,60,,,,,,,,,,,,,,,,,,,,,,,,,3,0,3,0,1,,,,,
A,B,82,A,,,,,,,,,,,,,,nedo99,001,2022-04-08_13h59.17.104,RALT_PLD,2020.2.10,Win32,60,,,,,,A,Yes,,,,,,,left,0,0.9892,Congruent,1,social,0,0,0,0,1,,,,,,,,,,
A,B,70,B,,,,,,,,,,,,,,nedo99,001,2022-04-08_13h59.17.104,RALT_PLD,2020.2.10,Win32,60,,,,,,B,Yes,,,,,,,right,0,2.9284,Incongruent,0,social,1,0,1,0,1,,,,,,,,,,
A,B,60,B,,,,,,,,,,,,,,nedo99,001,2022-04-08_13h59.17.104,RALT_PLD,2020.2.10,Win32,60,,,,,,B,Yes,,,,,,,right,0,0.8133,Congruent,1,social,2,0,2,0,1,,,,,,,,,,
A,B,40,A,,,,,,,,,,,,,,nedo99,001,2022-04-08_13h59.17.104,RALT_PLD,2020.2.10,Win32,60,,,,,,A,Yes,,,,,,,left,0,0.9461,Incongruent,0,social,3,0,3,0,1,,,,,,,,,,
,,,,,,,,,,,,,,,,,nedo99,001,2022-04-08_13h59.17.104,RALT_PLD,2020.2.10,Win32,60,,,,,,,,,,,,,,,,,,,,,,,,,4,0,4,0,1,,,,,
B,A,70,B,,,,,,,,,,,,,,nedo99,001,2022-04-08_13h59.17.104,RALT_PLD,2020.2.10,Win32,60,,,,,,B,Yes,,,,,,,left,0,1.2967,Congruent,1,social,0,0,0,0,1,,,,,,,,,,
B,A,82,A,,,,,,,,,,,,,,nedo99,001,2022-04-08_13h59.17.104,RALT_PLD,2020.2.10,Win32,60,,,,,,A,Yes,,,,,,,right,0,0.5623,Incongruent,0,social,1,0,1,0,1,,,,,,,,,,
B,A,60,B,,,,,,,,,,,,,,nedo99,001,2022-04-08_13h59.17.104,RALT_PLD,2020.2.10,Win32,60,,,,,,B,Yes,,,,,,,left,0,0.8745,Congruent,1,social,2,0,2,0,1,,,,,,,,,,
B,A,40,A,,,,,,,,,,,,,,nedo99,001,2022-04-08_13h59.17.104,RALT_PLD,2020.2.10,Win32,60,,,,,,A,Yes,,,,,,,right,0,0.6417,Congruent,1,social,3,0,3,0,1,,,,,,,,,,
,,,,,,,,,,,,,,,,,nedo99,001,2022-04-08_13h59.17.104,RALT_PLD,2020.2.10,Win32,60,,,,,,,,,,,,,,,,,,,,,,,,,5,0,5,0,1,,,,,
,,,,,,,,,,,,,,,,,nedo99,001,2022-04-08_13h59.17.104,RALT_PLD,2020.2.10,Win32,60,,,,,,,,,,,,,,,,,,,,,,,,,,,,,,2,0,2,0,1
B,A,75,B,,,,,,,,,,,,,,nedo99,001,2022-04-08_13h59.17.104,RALT_PLD,2020.2.10,Win32,60,,,,,,B,Yes,,,,,,,left,0,1.1527,Congruent,1,nonsocial,0,0,0,0,1,,,,,,,,,,
B,A,81,B,,,,,,,,,,,,,,nedo99,001,2022-04-08_13h59.17.104,RALT_PLD,2020.2.10,Win32,60,,,,,,B,Yes,,,,,,,left,0,0.9897,Congruent,1,nonsocial,1,0,1,0,1,,,,,,,,,,
B,A,99,A,,,,,,,,,,,,,,nedo99,001,2022-04-08_13h59.17.104,RALT_PLD,2020.2.10,Win32,60,,,,,,A,Yes,,,,,,,right,0,0.5535,Incongruent,0,nonsocial,2,0,2,0,1,,,,,,,,,,
B,A,63,A,,,,,,,,,,,,,,nedo99,001,2022-04-08_13h59.17.104,RALT_PLD,2020.2.10,Win32,60,,,,,,A,Yes,,,,,,,right,0,0.9211,Congruent,1,nonsocial,3,0,3,0,1,,,,,,,,,,
,,,,,,,,,,,,,,,,,nedo99,001,2022-04-08_13h59.17.104,RALT_PLD,2020.2.10,Win32,60,,,,,,,,,,,,,,,,,,,,,,,,,0,0,0,0,1,,,,,
B,A,99,A,,,,,,,,,,,,,,nedo99,001,2022-04-08_13h59.17.104,RALT_PLD,2020.2.10,Win32,60,,,,,,A,Yes,,,,,,,right,0,0.8473,Congruent,1,nonsocial,0,0,0,0,1,,,,,,,,,,
B,A,75,B,,,,,,,,,,,,,,nedo99,001,2022-04-08_13h59.17.104,RALT_PLD,2020.2.10,Win32,60,,,,,,B,Yes,,,,,,,left,0,0.7623,Congruent,1,nonsocial,1,0,1,0,1,,,,,,,,,,
B,A,81,B,,,,,,,,,,,,,,nedo99,001,2022-04-08_13h59.17.104,RALT_PLD,2020.2.10,Win32,60,,,,,,B,Yes,,,,,,,left,0,0.8535,Congruent,1,nonsocial,2,0,2,0,1,,,,,,,,,,
B,A,63,A,,,,,,,,,,,,,,nedo99,001,2022-04-08_13h59.17.104,RALT_PLD,2020.2.10,Win32,60,,,,,,A,Yes,,,,,,,right,0,1.0141,Congruent,1,nonsocial,3,0,3,0,1,,,,,,,,,,
,,,,,,,,,,,,,,,,,nedo99,001,2022-04-08_13h59.17.104,RALT_PLD,2020.2.10,Win32,60,,,,,,,,,,,,,,,,,,,,,,,,,1,0,1,0,1,,,,,
A,B,81,B,,,,,,,,,,,,,,nedo99,001,2022-04-08_13h59.17.104,RALT_PLD,2020.2.10,Win32,60,,,,,,B,Yes,,,,,,,right,0,0.9407,Congruent,1,nonsocial,0,0,0,0,1,,,,,,,,,,
A,B,63,A,,,,,,,,,,,,,,nedo99,001,2022-04-08_13h59.17.104,RALT_PLD,2020.2.10,Win32,60,,,,,,A,Yes,,,,,,,left,0,1.1,Incongruent,0,nonsocial,1,0,1,0,1,,,,,,,,,,
A,B,99,A,,,,,,,,,,,,,,nedo99,001,2022-04-08_13h59.17.104,RALT_PLD,2020.2.10,Win32,60,,,,,,A,Yes,,,,,,,left,0,0.66,Congruent,1,nonsocial,2,0,2,0,1,,,,,,,,,,
A,B,75,B,,,,,,,,,,,,,,nedo99,001,2022-04-08_13h59.17.104,RALT_PLD,2020.2.10,Win32,60,,,,,,B,Yes,,,,,,,right,0,0.8349,Congruent,1,nonsocial,3,0,3,0,1,,,,,,,,,,
,,,,,,,,,,,,,,,,,nedo99,001,2022-04-08_13h59.17.104,RALT_PLD,2020.2.10,Win32,60,,,,,,,,,,,,,,,,,,,,,,,,,2,0,2,0,1,,,,,
A,B,99,A,,,,,,,,,,,,,,nedo99,001,2022-04-08_13h59.17.104,RALT_PLD,2020.2.10,Win32,60,,,,,,A,Yes,,,,,,,left,0,0.8759,Congruent,1,nonsocial,0,0,0,0,1,,,,,,,,,,
A,B,63,A,,,,,,,,,,,,,,nedo99,001,2022-04-08_13h59.17.104,RALT_PLD,2020.2.10,Win32,60,,,,,,A,Yes,,,,,,,left,0,0.6793,Incongruent,0,nonsocial,1,0,1,0,1,,,,,,,,,,
A,B,75,B,,,,,,,,,,,,,,nedo99,001,2022-04-08_13h59.17.104,RALT_PLD,2020.2.10,Win32,60,,,,,,B,Yes,,,,,,,right,0,0.6,Incongruent,0,nonsocial,2,0,2,0,1,,,,,,,,,,
A,B,81,B,,,,,,,,,,,,,,nedo99,001,2022-04-08_13h59.17.104,RALT_PLD,2020.2.10,Win32,60,,,,,,B,Yes,,,,,,,right,0,0.5333,Congruent,1,nonsocial,3,0,3,0,1,,,,,,,,,,
,,,,,,,,,,,,,,,,,nedo99,001,2022-04-08_13h59.17.104,RALT_PLD,2020.2.10,Win32,60,,,,,,,,,,,,,,,,,,,,,,,,,3,0,3,0,1,,,,,
A,B,75,B,,,,,,,,,,,,,,nedo99,001,2022-04-08_13h59.17.104,RALT_PLD,2020.2.10,Win32,60,,,,,,B,Yes,,,,,,,right,0,0.885,Congruent,1,nonsocial,0,0,0,0,1,,,,,,,,,,
A,B,81,B,,,,,,,,,,,,,,nedo99,001,2022-04-08_13h59.17.104,RALT_PLD,2020.2.10,Win32,60,,,,,,B,Yes,,,,,,,right,0,0.6221,Incongruent,0,nonsocial,1,0,1,0,1,,,,,,,,,,
A,B,63,A,,,,,,,,,,,,,,nedo99,001,2022-04-08_13h59.17.104,RALT_PLD,2020.2.10,Win32,60,,,,,,A,Yes,,,,,,,left,0,0.8156,Congruent,1,nonsocial,2,0,2,0,1,,,,,,,,,,
A,B,99,A,,,,,,,,,,,,,,nedo99,001,2022-04-08_13h59.17.104,RALT_PLD,2020.2.10,Win32,60,,,,,,A,Yes,,,,,,,left,0,0.7353,Congruent,1,nonsocial,3,0,3,0,1,,,,,,,,,,
,,,,,,,,,,,,,,,,,nedo99,001,2022-04-08_13h59.17.104,RALT_PLD,2020.2.10,Win32,60,,,,,,,,,,,,,,,,,,,,,,,,,4,0,4,0,1,,,,,
A,B,75,B,,,,,,,,,,,,,,nedo99,001,2022-04-08_13h59.17.104,RALT_PLD,2020.2.10,Win32,60,,,,,,B,Yes,,,,,,,right,0,0.7421,Congruent,1,nonsocial,0,0,0,0,1,,,,,,,,,,
A,B,99,A,,,,,,,,,,,,,,nedo99,001,2022-04-08_13h59.17.104,RALT_PLD,2020.2.10,Win32,60,,,,,,A,Yes,,,,,,,left,0,0.5857,Congruent,1,nonsocial,1,0,1,0,1,,,,,,,,,,
A,B,63,A,,,,,,,,,,,,,,nedo99,001,2022-04-08_13h59.17.104,RALT_PLD,2020.2.10,Win32,60,,,,,,A,Yes,,,,,,,left,0,0.6493,Congruent,1,nonsocial,2,0,2,0,1,,,,,,,,,,
A,B,81,B,,,,,,,,,,,,,,nedo99,001,2022-04-08_13h59.17.104,RALT_PLD,2020.2.10,Win32,60,,,,,,B,Yes,,,,,,,right,0,0.7543,Congruent,1,nonsocial,3,0,3,0,1,,,,,,,,,,
,,,,,,,,,,,,,,,,,nedo99,001,2022-04-08_13h59.17.104,RALT_PLD,2020.2.10,Win32,60,,,,,,,,,,,,,,,,,,,,,,,,,5,0,5,0,1,,,,,
,,,,,,,,,,,,,,,,,nedo99,001,2022-04-08_13h59.17.104,RALT_PLD,2020.2.10,Win32,60,,,,,,,,,,,,,,,,,,,,,,,,,,,,,,3,0,3,0,1
