left,right,stim,ParticipantAnswer,response_training.keys,response_training.corr,response_training.rt,training_social.thisRepN,training_social.thisTrialN,training_social.thisN,training_social.thisIndex,training_social.ran,Stim,filename_neutral,filename_feedback_happy,filename_feedback_angry,CorrCatTrain,participant,session,date,expName,psychopyVersion,OS,frameRate,training_nonsocial.thisRepN,training_nonsocial.thisTrialN,training_nonsocial.thisN,training_nonsocial.thisIndex,training_nonsocial.ran,CorrCat,CorrectAns,prob_fb.thisRepN,prob_fb.thisTrialN,prob_fb.thisN,prob_fb.thisIndex,prob_fb.ran,CorrCatProb,response_training_2.keys,response_training_2.corr,response_training_2.rt,Congr/Incongr,Reward,BlockType,trials.thisRepN,trials.thisTrialN,trials.thisN,trials.thisIndex,trials.ran,cycles.thisRepN,cycles.thisTrialN,cycles.thisN,cycles.thisIndex,cycles.ran,blocks.thisRepN,blocks.thisTrialN,blocks.thisN,blocks.thisIndex,blocks.ran
B,A,38,A,right,0,4.5137,0,0,0,3,1,38,Stimuli/neutral/Still.jpg,Stimuli/social/happy/M02-Happy Man.mp4,Stimuli/social/angry/M06-Angry Man.mp4,B,nona99,001,2022-04-13_12h30.03.428,RALT_PLD,2020.2.10,Win32,60,,,,,,,,,,,,,,,,,,,,,,,,,,,,,,,,,,
B,A,91,B,left,0,2.0492,0,1,1,2,1,91,Stimuli/neutral/Still.jpg,Stimuli/social/happy/F01-Happy Women.mp4,Stimuli/social/angry/F04-Angry Women.mp4,B,nona99,001,2022-04-13_12h30.03.428,RALT_PLD,2020.2.10,Win32,60,,,,,,,,,,,,,,,,,,,,,,,,,,,,,,,,,,
B,A,38,A,right,0,1.2266,0,2,2,1,1,38,Stimuli/neutral/Still.jpg,Stimuli/social/happy/M02-Happy Man.mp4,Stimuli/social/angry/M06-Angry Man.mp4,A,nona99,001,2022-04-13_12h30.03.428,RALT_PLD,2020.2.10,Win32,60,,,,,,,,,,,,,,,,,,,,,,,,,,,,,,,,,,
B,A,99,B,left,0,1.3017,0,3,3,0,1,99,Stimuli/neutral/Still.jpg,Stimuli/social/happy/F01-Happy Women.mp4,Stimuli/social/angry/F04-Angry Women.mp4,A,nona99,001,2022-04-13_12h30.03.428,RALT_PLD,2020.2.10,Win32,60,,,,,,,,,,,,,,,,,,,,,,,,,,,,,,,,,,
B,A,39,A,right,0,3.1013,,,,,,39,Stimuli/neutral/Still.jpg,Stimuli/nonsocial/Right Tick.mp4,Stimuli/nonsocial/Wrong Tick.mp4,B,nona99,001,2022-04-13_12h30.03.428,RALT_PLD,2020.2.10,Win32,60,0,0,0,3,1,,,,,,,,,,,,,,,,,,,,,,,,,,,,,
B,A,98,B,left,0,0.946,,,,,,98,Stimuli/neutral/Still.jpg,Stimuli/nonsocial/Right Tick.mp4,Stimuli/nonsocial/Wrong Tick.mp4,B,nona99,001,2022-04-13_12h30.03.428,RALT_PLD,2020.2.10,Win32,60,0,1,1,0,1,,,,,,,,,,,,,,,,,,,,,,,,,,,,,
B,A,53,A,right,0,1.057,,,,,,53,Stimuli/neutral/Still.jpg,Stimuli/nonsocial/Right Tick.mp4,Stimuli/nonsocial/Wrong Tick.mp4,A,nona99,001,2022-04-13_12h30.03.428,RALT_PLD,2020.2.10,Win32,60,0,2,2,1,1,,,,,,,,,,,,,,,,,,,,,,,,,,,,,
B,A,43,A,right,0,1.3697,,,,,,43,Stimuli/neutral/Still.jpg,Stimuli/nonsocial/Right Tick.mp4,Stimuli/nonsocial/Wrong Tick.mp4,A,nona99,001,2022-04-13_12h30.03.428,RALT_PLD,2020.2.10,Win32,60,0,3,3,2,1,,,,,,,,,,,,,,,,,,,,,,,,,,,,,
B,A,38,A,right,0,1.659,,,,,,38,Stimuli/neutral/Still.jpg,Stimuli/social/happy/M02-Happy Man.mp4,Stimuli/social/angry/M06-Angry Man.mp4,,nona99,001,2022-04-13_12h30.03.428,RALT_PLD,2020.2.10,Win32,60,,,,,,"[[""B"",""B"",""A"",""A""],[""B"",""A"",""A"",""B""]]",No,0,0,0,3,1,B,,,,,,,,,,,,,,,,,,,,,
B,A,38,A,right,0,0.8263,,,,,,38,Stimuli/neutral/Still.jpg,Stimuli/social/happy/M02-Happy Man.mp4,Stimuli/social/angry/M06-Angry Man.mp4,,nona99,001,2022-04-13_12h30.03.428,RALT_PLD,2020.2.10,Win32,60,,,,,,"[[""B"",""B"",""A"",""A""],[""B"",""A"",""A"",""B""]]",Yes,0,1,1,1,1,A,,,,,,,,,,,,,,,,,,,,,
B,A,91,B,left,0,1.8252,,,,,,91,Stimuli/neutral/Still.jpg,Stimuli/social/happy/F01-Happy Women.mp4,Stimuli/social/angry/F04-Angry Women.mp4,,nona99,001,2022-04-13_12h30.03.428,RALT_PLD,2020.2.10,Win32,60,,,,,,"[[""B"",""B"",""A"",""A""],[""B"",""A"",""A"",""B""]]",Yes,0,2,2,2,1,B,,,,,,,,,,,,,,,,,,,,,
B,A,99,B,left,0,1.191,,,,,,99,Stimuli/neutral/Still.jpg,Stimuli/social/happy/F01-Happy Women.mp4,Stimuli/social/angry/F04-Angry Women.mp4,,nona99,001,2022-04-13_12h30.03.428,RALT_PLD,2020.2.10,Win32,60,,,,,,"[[""B"",""B"",""A"",""A""],[""B"",""A"",""A"",""B""]]",No,0,3,3,0,1,A,,,,,,,,,,,,,,,,,,,,,
B,A,14,B,,,,,,,,,,,,,,nona99,001,2022-04-13_12h30.03.428,RALT_PLD,2020.2.10,Win32,60,,,,,,A,No,,,,,,,left,0,1.5533,Congruent,0,nonsocial,0,0,0,0,1,,,,,,,,,,
B,A,36,A,,,,,,,,,,,,,,nona99,001,2022-04-13_12h30.03.428,RALT_PLD,2020.2.10,Win32,60,,,,,,B,No,,,,,,,right,0,0.8794,Congruent,0,nonsocial,1,0,1,0,1,,,,,,,,,,
B,A,64,A,,,,,,,,,,,,,,nona99,001,2022-04-13_12h30.03.428,RALT_PLD,2020.2.10,Win32,60,,,,,,A,Yes,,,,,,,right,0,0.6199,Incongruent,0,nonsocial,2,0,2,0,1,,,,,,,,,,
B,A,90,A,,,,,,,,,,,,,,nona99,001,2022-04-13_12h30.03.428,RALT_PLD,2020.2.10,Win32,60,,,,,,B,No,,,,,,,right,0,0.6603,Congruent,0,nonsocial,3,0,3,0,1,,,,,,,,,,
,,,,,,,,,,,,,,,,,nona99,001,2022-04-13_12h30.03.428,RALT_PLD,2020.2.10,Win32,60,,,,,,,,,,,,,,,,,,,,,,,,,0,0,0,0,1,,,,,
A,B,64,A,,,,,,,,,,,,,,nona99,001,2022-04-13_12h30.03.428,RALT_PLD,2020.2.10,Win32,60,,,,,,A,Yes,,,,,,,left,0,2.8362,Congruent,1,nonsocial,0,0,0,0,1,,,,,,,,,,
A,B,36,B,,,,,,,,,,,,,,nona99,001,2022-04-13_12h30.03.428,RALT_PLD,2020.2.10,Win32,60,,,,,,B,Yes,,,,,,,right,0,1.403,Congruent,1,nonsocial,1,0,1,0,1,,,,,,,,,,
A,B,14,A,,,,,,,,,,,,,,nona99,001,2022-04-13_12h30.03.428,RALT_PLD,2020.2.10,Win32,60,,,,,,A,Yes,,,,,,,left,0,1.2732,Congruent,1,nonsocial,2,0,2,0,1,,,,,,,,,,
A,B,90,B,,,,,,,,,,,,,,nona99,001,2022-04-13_12h30.03.428,RALT_PLD,2020.2.10,Win32,60,,,,,,B,Yes,,,,,,,right,0,1.0567,Congruent,1,nonsocial,3,0,3,0,1,,,,,,,,,,
,,,,,,,,,,,,,,,,,nona99,001,2022-04-13_12h30.03.428,RALT_PLD,2020.2.10,Win32,60,,,,,,,,,,,,,,,,,,,,,,,,,1,0,1,0,1,,,,,
A,B,36,B,,,,,,,,,,,,,,nona99,001,2022-04-13_12h30.03.428,RALT_PLD,2020.2.10,Win32,60,,,,,,B,Yes,,,,,,,right,0,2.9872,Congruent,1,nonsocial,0,0,0,0,1,,,,,,,,,,
A,B,90,A,,,,,,,,,,,,,,nona99,001,2022-04-13_12h30.03.428,RALT_PLD,2020.2.10,Win32,60,,,,,,B,No,,,,,,,left,0,0.7497,Congruent,0,nonsocial,1,0,1,0,1,,,,,,,,,,
A,B,14,A,,,,,,,,,,,,,,nona99,001,2022-04-13_12h30.03.428,RALT_PLD,2020.2.10,Win32,60,,,,,,A,Yes,,,,,,,left,0,1.3077,Incongruent,0,nonsocial,2,0,2,0,1,,,,,,,,,,
A,B,64,A,,,,,,,,,,,,,,nona99,001,2022-04-13_12h30.03.428,RALT_PLD,2020.2.10,Win32,60,,,,,,A,Yes,,,,,,,left,0,1.4671,Incongruent,0,nonsocial,3,0,3,0,1,,,,,,,,,,
,,,,,,,,,,,,,,,,,nona99,001,2022-04-13_12h30.03.428,RALT_PLD,2020.2.10,Win32,60,,,,,,,,,,,,,,,,,,,,,,,,,2,0,2,0,1,,,,,
B,A,64,B,,,,,,,,,,,,,,nona99,001,2022-04-13_12h30.03.428,RALT_PLD,2020.2.10,Win32,60,,,,,,A,No,,,,,,,left,0,5.3259,Incongruent,1,nonsocial,0,0,0,0,1,,,,,,,,,,
B,A,90,A,,,,,,,,,,,,,,nona99,001,2022-04-13_12h30.03.428,RALT_PLD,2020.2.10,Win32,60,,,,,,B,No,,,,,,,right,0,1.4552,Congruent,0,nonsocial,1,0,1,0,1,,,,,,,,,,
B,A,36,B,,,,,,,,,,,,,,nona99,001,2022-04-13_12h30.03.428,RALT_PLD,2020.2.10,Win32,60,,,,,,B,Yes,,,,,,,left,0,2.2465,Congruent,1,nonsocial,2,0,2,0,1,,,,,,,,,,
B,A,14,B,,,,,,,,,,,,,,nona99,001,2022-04-13_12h30.03.428,RALT_PLD,2020.2.10,Win32,60,,,,,,A,No,,,,,,,left,0,1.4676,Congruent,0,nonsocial,3,0,3,0,1,,,,,,,,,,
,,,,,,,,,,,,,,,,,nona99,001,2022-04-13_12h30.03.428,RALT_PLD,2020.2.10,Win32,60,,,,,,,,,,,,,,,,,,,,,,,,,3,0,3,0,1,,,,,
A,B,14,B,,,,,,,,,,,,,,nona99,001,2022-04-13_12h30.03.428,RALT_PLD,2020.2.10,Win32,60,,,,,,A,No,,,,,,,right,0,1.5813,Congruent,0,nonsocial,0,0,0,0,1,,,,,,,,,,
A,B,90,B,,,,,,,,,,,,,,nona99,001,2022-04-13_12h30.03.428,RALT_PLD,2020.2.10,Win32,60,,,,,,B,Yes,,,,,,,right,0,1.4932,Congruent,1,nonsocial,1,0,1,0,1,,,,,,,,,,
A,B,64,A,,,,,,,,,,,,,,nona99,001,2022-04-13_12h30.03.428,RALT_PLD,2020.2.10,Win32,60,,,,,,A,Yes,,,,,,,left,0,0.9304,Congruent,1,nonsocial,2,0,2,0,1,,,,,,,,,,
A,B,36,A,,,,,,,,,,,,,,nona99,001,2022-04-13_12h30.03.428,RALT_PLD,2020.2.10,Win32,60,,,,,,B,No,,,,,,,left,0,1.0932,Congruent,0,nonsocial,3,0,3,0,1,,,,,,,,,,
,,,,,,,,,,,,,,,,,nona99,001,2022-04-13_12h30.03.428,RALT_PLD,2020.2.10,Win32,60,,,,,,,,,,,,,,,,,,,,,,,,,4,0,4,0,1,,,,,
A,B,90,A,,,,,,,,,,,,,,nona99,001,2022-04-13_12h30.03.428,RALT_PLD,2020.2.10,Win32,60,,,,,,B,No,,,,,,,left,0,2.5083,Congruent,0,nonsocial,0,0,0,0,1,,,,,,,,,,
A,B,64,A,,,,,,,,,,,,,,nona99,001,2022-04-13_12h30.03.428,RALT_PLD,2020.2.10,Win32,60,,,,,,A,Yes,,,,,,,left,0,1.204,Congruent,1,nonsocial,1,0,1,0,1,,,,,,,,,,
A,B,14,A,,,,,,,,,,,,,,nona99,001,2022-04-13_12h30.03.428,RALT_PLD,2020.2.10,Win32,60,,,,,,A,Yes,,,,,,,left,0,0.72,Congruent,1,nonsocial,2,0,2,0,1,,,,,,,,,,
A,B,36,A,,,,,,,,,,,,,,nona99,001,2022-04-13_12h30.03.428,RALT_PLD,2020.2.10,Win32,60,,,,,,B,No,,,,,,,left,0,0.9858,Congruent,0,nonsocial,3,0,3,0,1,,,,,,,,,,
,,,,,,,,,,,,,,,,,nona99,001,2022-04-13_12h30.03.428,RALT_PLD,2020.2.10,Win32,60,,,,,,,,,,,,,,,,,,,,,,,,,5,0,5,0,1,,,,,
,,,,,,,,,,,,,,,,,nona99,001,2022-04-13_12h30.03.428,RALT_PLD,2020.2.10,Win32,60,,,,,,,,,,,,,,,,,,,,,,,,,,,,,,0,0,0,0,1
A,B,87,A,,,,,,,,,,,,,,nona99,001,2022-04-13_12h30.03.428,RALT_PLD,2020.2.10,Win32,60,,,,,,B,No,,,,,,,left,0,2.6699,Congruent,0,social,0,0,0,0,1,,,,,,,,,,
A,B,17,A,,,,,,,,,,,,,,nona99,001,2022-04-13_12h30.03.428,RALT_PLD,2020.2.10,Win32,60,,,,,,B,No,,,,,,,left,0,0.6756,Congruent,0,social,1,0,1,0,1,,,,,,,,,,
A,B,53,A,,,,,,,,,,,,,,nona99,001,2022-04-13_12h30.03.428,RALT_PLD,2020.2.10,Win32,60,,,,,,A,Yes,,,,,,,left,0,0.8289,Congruent,1,social,2,0,2,0,1,,,,,,,,,,
A,B,73,A,,,,,,,,,,,,,,nona99,001,2022-04-13_12h30.03.428,RALT_PLD,2020.2.10,Win32,60,,,,,,A,Yes,,,,,,,left,0,1.2119,Congruent,1,social,3,0,3,0,1,,,,,,,,,,
,,,,,,,,,,,,,,,,,nona99,001,2022-04-13_12h30.03.428,RALT_PLD,2020.2.10,Win32,60,,,,,,,,,,,,,,,,,,,,,,,,,0,0,0,0,1,,,,,
A,B,17,A,,,,,,,,,,,,,,nona99,001,2022-04-13_12h30.03.428,RALT_PLD,2020.2.10,Win32,60,,,,,,B,No,,,,,,,left,0,3.1185,Congruent,0,social,0,0,0,0,1,,,,,,,,,,
A,B,73,A,,,,,,,,,,,,,,nona99,001,2022-04-13_12h30.03.428,RALT_PLD,2020.2.10,Win32,60,,,,,,A,Yes,,,,,,,left,0,0.7926,Congruent,1,social,1,0,1,0,1,,,,,,,,,,
A,B,53,A,,,,,,,,,,,,,,nona99,001,2022-04-13_12h30.03.428,RALT_PLD,2020.2.10,Win32,60,,,,,,A,Yes,,,,,,,left,0,0.6372,Congruent,1,social,2,0,2,0,1,,,,,,,,,,
A,B,87,B,,,,,,,,,,,,,,nona99,001,2022-04-13_12h30.03.428,RALT_PLD,2020.2.10,Win32,60,,,,,,B,Yes,,,,,,,right,0,0.8256,Congruent,1,social,3,0,3,0,1,,,,,,,,,,
,,,,,,,,,,,,,,,,,nona99,001,2022-04-13_12h30.03.428,RALT_PLD,2020.2.10,Win32,60,,,,,,,,,,,,,,,,,,,,,,,,,1,0,1,0,1,,,,,
B,A,17,B,,,,,,,,,,,,,,nona99,001,2022-04-13_12h30.03.428,RALT_PLD,2020.2.10,Win32,60,,,,,,B,Yes,,,,,,,left,0,2.3126,Congruent,1,social,0,0,0,0,1,,,,,,,,,,
B,A,53,A,,,,,,,,,,,,,,nona99,001,2022-04-13_12h30.03.428,RALT_PLD,2020.2.10,Win32,60,,,,,,A,Yes,,,,,,,right,0,1.0919,Congruent,1,social,1,0,1,0,1,,,,,,,,,,
B,A,73,B,,,,,,,,,,,,,,nona99,001,2022-04-13_12h30.03.428,RALT_PLD,2020.2.10,Win32,60,,,,,,A,No,,,,,,,left,0,0.8771,Congruent,0,social,2,0,2,0,1,,,,,,,,,,
B,A,87,A,,,,,,,,,,,,,,nona99,001,2022-04-13_12h30.03.428,RALT_PLD,2020.2.10,Win32,60,,,,,,B,No,,,,,,,right,0,0.6214,Congruent,0,social,3,0,3,0,1,,,,,,,,,,
,,,,,,,,,,,,,,,,,nona99,001,2022-04-13_12h30.03.428,RALT_PLD,2020.2.10,Win32,60,,,,,,,,,,,,,,,,,,,,,,,,,2,0,2,0,1,,,,,
B,A,53,B,,,,,,,,,,,,,,nona99,001,2022-04-13_12h30.03.428,RALT_PLD,2020.2.10,Win32,60,,,,,,A,No,,,,,,,left,0,0.9701,Congruent,0,social,0,0,0,0,1,,,,,,,,,,
B,A,73,A,,,,,,,,,,,,,,nona99,001,2022-04-13_12h30.03.428,RALT_PLD,2020.2.10,Win32,60,,,,,,A,Yes,,,,,,,right,0,0.9349,Congruent,1,social,1,0,1,0,1,,,,,,,,,,
B,A,87,B,,,,,,,,,,,,,,nona99,001,2022-04-13_12h30.03.428,RALT_PLD,2020.2.10,Win32,60,,,,,,B,Yes,,,,,,,left,0,0.4675,Congruent,1,social,2,0,2,0,1,,,,,,,,,,
B,A,17,B,,,,,,,,,,,,,,nona99,001,2022-04-13_12h30.03.428,RALT_PLD,2020.2.10,Win32,60,,,,,,B,Yes,,,,,,,left,0,0.9233,Congruent,1,social,3,0,3,0,1,,,,,,,,,,
,,,,,,,,,,,,,,,,,nona99,001,2022-04-13_12h30.03.428,RALT_PLD,2020.2.10,Win32,60,,,,,,,,,,,,,,,,,,,,,,,,,3,0,3,0,1,,,,,
B,A,53,B,,,,,,,,,,,,,,nona99,001,2022-04-13_12h30.03.428,RALT_PLD,2020.2.10,Win32,60,,,,,,A,No,,,,,,,left,0,1.2103,Congruent,0,social,0,0,0,0,1,,,,,,,,,,
B,A,73,A,,,,,,,,,,,,,,nona99,001,2022-04-13_12h30.03.428,RALT_PLD,2020.2.10,Win32,60,,,,,,A,Yes,,,,,,,right,0,0.8623,Congruent,1,social,1,0,1,0,1,,,,,,,,,,
B,A,87,B,,,,,,,,,,,,,,nona99,001,2022-04-13_12h30.03.428,RALT_PLD,2020.2.10,Win32,60,,,,,,B,Yes,,,,,,,left,0,0.5709,Incongruent,0,social,2,0,2,0,1,,,,,,,,,,
B,A,17,B,,,,,,,,,,,,,,nona99,001,2022-04-13_12h30.03.428,RALT_PLD,2020.2.10,Win32,60,,,,,,B,Yes,,,,,,,left,0,0.4085,Congruent,1,social,3,0,3,0,1,,,,,,,,,,
,,,,,,,,,,,,,,,,,nona99,001,2022-04-13_12h30.03.428,RALT_PLD,2020.2.10,Win32,60,,,,,,,,,,,,,,,,,,,,,,,,,4,0,4,0,1,,,,,
B,A,87,B,,,,,,,,,,,,,,nona99,001,2022-04-13_12h30.03.428,RALT_PLD,2020.2.10,Win32,60,,,,,,B,Yes,,,,,,,left,0,1.0339,Congruent,1,social,0,0,0,0,1,,,,,,,,,,
B,A,17,B,,,,,,,,,,,,,,nona99,001,2022-04-13_12h30.03.428,RALT_PLD,2020.2.10,Win32,60,,,,,,B,Yes,,,,,,,left,0,0.4046,Congruent,1,social,1,0,1,0,1,,,,,,,,,,
B,A,73,A,,,,,,,,,,,,,,nona99,001,2022-04-13_12h30.03.428,RALT_PLD,2020.2.10,Win32,60,,,,,,A,Yes,,,,,,,right,0,0.8086,Congruent,1,social,2,0,2,0,1,,,,,,,,,,
B,A,53,A,,,,,,,,,,,,,,nona99,001,2022-04-13_12h30.03.428,RALT_PLD,2020.2.10,Win32,60,,,,,,A,Yes,,,,,,,right,0,2.2619,Incongruent,0,social,3,0,3,0,1,,,,,,,,,,
,,,,,,,,,,,,,,,,,nona99,001,2022-04-13_12h30.03.428,RALT_PLD,2020.2.10,Win32,60,,,,,,,,,,,,,,,,,,,,,,,,,5,0,5,0,1,,,,,
,,,,,,,,,,,,,,,,,nona99,001,2022-04-13_12h30.03.428,RALT_PLD,2020.2.10,Win32,60,,,,,,,,,,,,,,,,,,,,,,,,,,,,,,1,0,1,0,1
A,B,64,B,,,,,,,,,,,,,,nona99,001,2022-04-13_12h30.03.428,RALT_PLD,2020.2.10,Win32,60,,,,,,A,No,,,,,,,right,0,2.9128,Congruent,0,nonsocial,0,0,0,0,1,,,,,,,,,,
A,B,14,A,,,,,,,,,,,,,,nona99,001,2022-04-13_12h30.03.428,RALT_PLD,2020.2.10,Win32,60,,,,,,A,Yes,,,,,,,left,0,0.7265,Incongruent,0,nonsocial,1,0,1,0,1,,,,,,,,,,
A,B,90,A,,,,,,,,,,,,,,nona99,001,2022-04-13_12h30.03.428,RALT_PLD,2020.2.10,Win32,60,,,,,,B,No,,,,,,,left,0,0.8202,Congruent,0,nonsocial,2,0,2,0,1,,,,,,,,,,
A,B,36,A,,,,,,,,,,,,,,nona99,001,2022-04-13_12h30.03.428,RALT_PLD,2020.2.10,Win32,60,,,,,,B,No,,,,,,,left,0,0.6715,Congruent,0,nonsocial,3,0,3,0,1,,,,,,,,,,
,,,,,,,,,,,,,,,,,nona99,001,2022-04-13_12h30.03.428,RALT_PLD,2020.2.10,Win32,60,,,,,,,,,,,,,,,,,,,,,,,,,0,0,0,0,1,,,,,
A,B,36,B,,,,,,,,,,,,,,nona99,001,2022-04-13_12h30.03.428,RALT_PLD,2020.2.10,Win32,60,,,,,,B,Yes,,,,,,,right,0,2.7706,Congruent,1,nonsocial,0,0,0,0,1,,,,,,,,,,
A,B,14,B,,,,,,,,,,,,,,nona99,001,2022-04-13_12h30.03.428,RALT_PLD,2020.2.10,Win32,60,,,,,,A,No,,,,,,,right,0,1.0754,Congruent,0,nonsocial,1,0,1,0,1,,,,,,,,,,
A,B,64,A,,,,,,,,,,,,,,nona99,001,2022-04-13_12h30.03.428,RALT_PLD,2020.2.10,Win32,60,,,,,,A,Yes,,,,,,,left,0,0.6623,Incongruent,0,nonsocial,2,0,2,0,1,,,,,,,,,,
A,B,90,B,,,,,,,,,,,,,,nona99,001,2022-04-13_12h30.03.428,RALT_PLD,2020.2.10,Win32,60,,,,,,B,Yes,,,,,,,right,0,1.7982,Congruent,1,nonsocial,3,0,3,0,1,,,,,,,,,,
,,,,,,,,,,,,,,,,,nona99,001,2022-04-13_12h30.03.428,RALT_PLD,2020.2.10,Win32,60,,,,,,,,,,,,,,,,,,,,,,,,,1,0,1,0,1,,,,,
A,B,90,B,,,,,,,,,,,,,,nona99,001,2022-04-13_12h30.03.428,RALT_PLD,2020.2.10,Win32,60,,,,,,B,Yes,,,,,,,right,0,1.2814,Incongruent,0,nonsocial,0,0,0,0,1,,,,,,,,,,
A,B,36,A,,,,,,,,,,,,,,nona99,001,2022-04-13_12h30.03.428,RALT_PLD,2020.2.10,Win32,60,,,,,,B,No,,,,,,,left,0,1.1422,Congruent,0,nonsocial,1,0,1,0,1,,,,,,,,,,
A,B,14,A,,,,,,,,,,,,,,nona99,001,2022-04-13_12h30.03.428,RALT_PLD,2020.2.10,Win32,60,,,,,,A,Yes,,,,,,,left,0,1.8138,Congruent,1,nonsocial,2,0,2,0,1,,,,,,,,,,
A,B,64,A,,,,,,,,,,,,,,nona99,001,2022-04-13_12h30.03.428,RALT_PLD,2020.2.10,Win32,60,,,,,,A,Yes,,,,,,,left,0,0.4349,Congruent,1,nonsocial,3,0,3,0,1,,,,,,,,,,
,,,,,,,,,,,,,,,,,nona99,001,2022-04-13_12h30.03.428,RALT_PLD,2020.2.10,Win32,60,,,,,,,,,,,,,,,,,,,,,,,,,2,0,2,0,1,,,,,
B,A,90,B,,,,,,,,,,,,,,nona99,001,2022-04-13_12h30.03.428,RALT_PLD,2020.2.10,Win32,60,,,,,,B,Yes,,,,,,,left,0,0.9336,Congruent,1,nonsocial,0,0,0,0,1,,,,,,,,,,
B,A,14,A,,,,,,,,,,,,,,nona99,001,2022-04-13_12h30.03.428,RALT_PLD,2020.2.10,Win32,60,,,,,,A,Yes,,,,,,,right,0,1.4155,Congruent,1,nonsocial,1,0,1,0,1,,,,,,,,,,
B,A,64,A,,,,,,,,,,,,,,nona99,001,2022-04-13_12h30.03.428,RALT_PLD,2020.2.10,Win32,60,,,,,,A,Yes,,,,,,,right,0,0.4776,Incongruent,0,nonsocial,2,0,2,0,1,,,,,,,,,,
B,A,36,B,,,,,,,,,,,,,,nona99,001,2022-04-13_12h30.03.428,RALT_PLD,2020.2.10,Win32,60,,,,,,B,Yes,,,,,,,left,0,0.7835,Congruent,1,nonsocial,3,0,3,0,1,,,,,,,,,,
,,,,,,,,,,,,,,,,,nona99,001,2022-04-13_12h30.03.428,RALT_PLD,2020.2.10,Win32,60,,,,,,,,,,,,,,,,,,,,,,,,,3,0,3,0,1,,,,,
A,B,36,B,,,,,,,,,,,,,,nona99,001,2022-04-13_12h30.03.428,RALT_PLD,2020.2.10,Win32,60,,,,,,B,Yes,,,,,,,right,0,1.0933,Congruent,1,nonsocial,0,0,0,0,1,,,,,,,,,,
A,B,64,A,,,,,,,,,,,,,,nona99,001,2022-04-13_12h30.03.428,RALT_PLD,2020.2.10,Win32,60,,,,,,A,Yes,,,,,,,left,0,1.0887,Congruent,1,nonsocial,1,0,1,0,1,,,,,,,,,,
A,B,90,B,,,,,,,,,,,,,,nona99,001,2022-04-13_12h30.03.428,RALT_PLD,2020.2.10,Win32,60,,,,,,B,Yes,,,,,,,right,0,0.762,Congruent,1,nonsocial,2,0,2,0,1,,,,,,,,,,
A,B,14,A,,,,,,,,,,,,,,nona99,001,2022-04-13_12h30.03.428,RALT_PLD,2020.2.10,Win32,60,,,,,,A,Yes,,,,,,,left,0,0.4524,Congruent,1,nonsocial,3,0,3,0,1,,,,,,,,,,
,,,,,,,,,,,,,,,,,nona99,001,2022-04-13_12h30.03.428,RALT_PLD,2020.2.10,Win32,60,,,,,,,,,,,,,,,,,,,,,,,,,4,0,4,0,1,,,,,
B,A,64,A,,,,,,,,,,,,,,nona99,001,2022-04-13_12h30.03.428,RALT_PLD,2020.2.10,Win32,60,,,,,,A,Yes,,,,,,,right,0,1.065,Congruent,1,nonsocial,0,0,0,0,1,,,,,,,,,,
B,A,14,A,,,,,,,,,,,,,,nona99,001,2022-04-13_12h30.03.428,RALT_PLD,2020.2.10,Win32,60,,,,,,A,Yes,,,,,,,right,0,0.7443,Congruent,1,nonsocial,1,0,1,0,1,,,,,,,,,,
B,A,36,B,,,,,,,,,,,,,,nona99,001,2022-04-13_12h30.03.428,RALT_PLD,2020.2.10,Win32,60,,,,,,B,Yes,,,,,,,left,0,0.87,Congruent,1,nonsocial,2,0,2,0,1,,,,,,,,,,
B,A,90,B,,,,,,,,,,,,,,nona99,001,2022-04-13_12h30.03.428,RALT_PLD,2020.2.10,Win32,60,,,,,,B,Yes,,,,,,,left,0,0.8556,Congruent,1,nonsocial,3,0,3,0,1,,,,,,,,,,
,,,,,,,,,,,,,,,,,nona99,001,2022-04-13_12h30.03.428,RALT_PLD,2020.2.10,Win32,60,,,,,,,,,,,,,,,,,,,,,,,,,5,0,5,0,1,,,,,
,,,,,,,,,,,,,,,,,nona99,001,2022-04-13_12h30.03.428,RALT_PLD,2020.2.10,Win32,60,,,,,,,,,,,,,,,,,,,,,,,,,,,,,,2,0,2,0,1
B,A,73,B,,,,,,,,,,,,,,nona99,001,2022-04-13_12h30.03.428,RALT_PLD,2020.2.10,Win32,60,,,,,,A,No,,,,,,,left,0,4.0525,Congruent,0,social,0,0,0,0,1,,,,,,,,,,
B,A,87,B,,,,,,,,,,,,,,nona99,001,2022-04-13_12h30.03.428,RALT_PLD,2020.2.10,Win32,60,,,,,,B,Yes,,,,,,,left,0,0.5481,Congruent,1,social,1,0,1,0,1,,,,,,,,,,
B,A,53,A,,,,,,,,,,,,,,nona99,001,2022-04-13_12h30.03.428,RALT_PLD,2020.2.10,Win32,60,,,,,,A,Yes,,,,,,,right,0,1.0838,Congruent,1,social,2,0,2,0,1,,,,,,,,,,
B,A,17,A,,,,,,,,,,,,,,nona99,001,2022-04-13_12h30.03.428,RALT_PLD,2020.2.10,Win32,60,,,,,,B,No,,,,,,,right,0,1.7925,Congruent,0,social,3,0,3,0,1,,,,,,,,,,
,,,,,,,,,,,,,,,,,nona99,001,2022-04-13_12h30.03.428,RALT_PLD,2020.2.10,Win32,60,,,,,,,,,,,,,,,,,,,,,,,,,0,0,0,0,1,,,,,
B,A,17,B,,,,,,,,,,,,,,nona99,001,2022-04-13_12h30.03.428,RALT_PLD,2020.2.10,Win32,60,,,,,,B,Yes,,,,,,,left,0,0.7283,Incongruent,0,social,0,0,0,0,1,,,,,,,,,,
B,A,53,A,,,,,,,,,,,,,,nona99,001,2022-04-13_12h30.03.428,RALT_PLD,2020.2.10,Win32,60,,,,,,A,Yes,,,,,,,right,0,1.0624,Congruent,1,social,1,0,1,0,1,,,,,,,,,,
B,A,87,B,,,,,,,,,,,,,,nona99,001,2022-04-13_12h30.03.428,RALT_PLD,2020.2.10,Win32,60,,,,,,B,Yes,,,,,,,left,0,1.5466,Congruent,1,social,2,0,2,0,1,,,,,,,,,,
B,A,73,B,,,,,,,,,,,,,,nona99,001,2022-04-13_12h30.03.428,RALT_PLD,2020.2.10,Win32,60,,,,,,A,No,,,,,,,left,0,0.7546,Congruent,0,social,3,0,3,0,1,,,,,,,,,,
,,,,,,,,,,,,,,,,,nona99,001,2022-04-13_12h30.03.428,RALT_PLD,2020.2.10,Win32,60,,,,,,,,,,,,,,,,,,,,,,,,,1,0,1,0,1,,,,,
A,B,53,A,,,,,,,,,,,,,,nona99,001,2022-04-13_12h30.03.428,RALT_PLD,2020.2.10,Win32,60,,,,,,A,Yes,,,,,,,left,0,0.7208,Congruent,1,social,0,0,0,0,1,,,,,,,,,,
A,B,87,B,,,,,,,,,,,,,,nona99,001,2022-04-13_12h30.03.428,RALT_PLD,2020.2.10,Win32,60,,,,,,B,Yes,,,,,,,right,0,1.0642,Congruent,1,social,1,0,1,0,1,,,,,,,,,,
A,B,17,B,,,,,,,,,,,,,,nona99,001,2022-04-13_12h30.03.428,RALT_PLD,2020.2.10,Win32,60,,,,,,B,Yes,,,,,,,right,0,0.6926,Congruent,1,social,2,0,2,0,1,,,,,,,,,,
A,B,73,A,,,,,,,,,,,,,,nona99,001,2022-04-13_12h30.03.428,RALT_PLD,2020.2.10,Win32,60,,,,,,A,Yes,,,,,,,left,0,0.6709,Congruent,1,social,3,0,3,0,1,,,,,,,,,,
,,,,,,,,,,,,,,,,,nona99,001,2022-04-13_12h30.03.428,RALT_PLD,2020.2.10,Win32,60,,,,,,,,,,,,,,,,,,,,,,,,,2,0,2,0,1,,,,,
B,A,87,B,,,,,,,,,,,,,,nona99,001,2022-04-13_12h30.03.428,RALT_PLD,2020.2.10,Win32,60,,,,,,B,Yes,,,,,,,left,0,1.9039,Congruent,1,social,0,0,0,0,1,,,,,,,,,,
B,A,73,A,,,,,,,,,,,,,,nona99,001,2022-04-13_12h30.03.428,RALT_PLD,2020.2.10,Win32,60,,,,,,A,Yes,,,,,,,right,0,0.796,Congruent,1,social,1,0,1,0,1,,,,,,,,,,
B,A,17,A,,,,,,,,,,,,,,nona99,001,2022-04-13_12h30.03.428,RALT_PLD,2020.2.10,Win32,60,,,,,,B,No,,,,,,,right,0,0.5392,Incongruent,1,social,2,0,2,0,1,,,,,,,,,,
B,A,53,B,,,,,,,,,,,,,,nona99,001,2022-04-13_12h30.03.428,RALT_PLD,2020.2.10,Win32,60,,,,,,A,No,,,,,,,left,0,0.3495,Congruent,0,social,3,0,3,0,1,,,,,,,,,,
,,,,,,,,,,,,,,,,,nona99,001,2022-04-13_12h30.03.428,RALT_PLD,2020.2.10,Win32,60,,,,,,,,,,,,,,,,,,,,,,,,,3,0,3,0,1,,,,,
B,A,53,A,,,,,,,,,,,,,,nona99,001,2022-04-13_12h30.03.428,RALT_PLD,2020.2.10,Win32,60,,,,,,A,Yes,,,,,,,right,0,1.2658,Congruent,1,social,0,0,0,0,1,,,,,,,,,,
B,A,73,A,,,,,,,,,,,,,,nona99,001,2022-04-13_12h30.03.428,RALT_PLD,2020.2.10,Win32,60,,,,,,A,Yes,,,,,,,right,0,0.4732,Congruent,1,social,1,0,1,0,1,,,,,,,,,,
B,A,17,B,,,,,,,,,,,,,,nona99,001,2022-04-13_12h30.03.428,RALT_PLD,2020.2.10,Win32,60,,,,,,B,Yes,,,,,,,left,0,0.3837,Congruent,1,social,2,0,2,0,1,,,,,,,,,,
B,A,87,B,,,,,,,,,,,,,,nona99,001,2022-04-13_12h30.03.428,RALT_PLD,2020.2.10,Win32,60,,,,,,B,Yes,,,,,,,left,0,0.4894,Incongruent,0,social,3,0,3,0,1,,,,,,,,,,
,,,,,,,,,,,,,,,,,nona99,001,2022-04-13_12h30.03.428,RALT_PLD,2020.2.10,Win32,60,,,,,,,,,,,,,,,,,,,,,,,,,4,0,4,0,1,,,,,
A,B,73,A,,,,,,,,,,,,,,nona99,001,2022-04-13_12h30.03.428,RALT_PLD,2020.2.10,Win32,60,,,,,,A,Yes,,,,,,,left,0,0.7912,Congruent,1,social,0,0,0,0,1,,,,,,,,,,
A,B,53,A,,,,,,,,,,,,,,nona99,001,2022-04-13_12h30.03.428,RALT_PLD,2020.2.10,Win32,60,,,,,,A,Yes,,,,,,,left,0,0.7258,Congruent,1,social,1,0,1,0,1,,,,,,,,,,
A,B,87,B,,,,,,,,,,,,,,nona99,001,2022-04-13_12h30.03.428,RALT_PLD,2020.2.10,Win32,60,,,,,,B,Yes,,,,,,,right,0,0.8265,Congruent,1,social,2,0,2,0,1,,,,,,,,,,
A,B,17,A,,,,,,,,,,,,,,nona99,001,2022-04-13_12h30.03.428,RALT_PLD,2020.2.10,Win32,60,,,,,,B,No,,,,,,,left,0,0.4458,Congruent,0,social,3,0,3,0,1,,,,,,,,,,
,,,,,,,,,,,,,,,,,nona99,001,2022-04-13_12h30.03.428,RALT_PLD,2020.2.10,Win32,60,,,,,,,,,,,,,,,,,,,,,,,,,5,0,5,0,1,,,,,
,,,,,,,,,,,,,,,,,nona99,001,2022-04-13_12h30.03.428,RALT_PLD,2020.2.10,Win32,60,,,,,,,,,,,,,,,,,,,,,,,,,,,,,,3,0,3,0,1
