left,right,stim,ParticipantAnswer,response_training.keys,response_training.corr,response_training.rt,training_social.thisRepN,training_social.thisTrialN,training_social.thisN,training_social.thisIndex,training_social.ran,Stim,filename_neutral,filename_feedback_happy,filename_feedback_angry,CorrCatTrain,participant,session,date,expName,psychopyVersion,OS,frameRate,training_nonsocial.thisRepN,training_nonsocial.thisTrialN,training_nonsocial.thisN,training_nonsocial.thisIndex,training_nonsocial.ran,CorrCat,CorrectAns,prob_fb.thisRepN,prob_fb.thisTrialN,prob_fb.thisN,prob_fb.thisIndex,prob_fb.ran,CorrCatProb,response_training_2.keys,response_training_2.corr,response_training_2.rt,Congr/Incongr,Reward,BlockType,trials.thisRepN,trials.thisTrialN,trials.thisN,trials.thisIndex,trials.ran,cycles.thisRepN,cycles.thisTrialN,cycles.thisN,cycles.thisIndex,cycles.ran,blocks.thisRepN,blocks.thisTrialN,blocks.thisN,blocks.thisIndex,blocks.ran
B,A,38,B,left,0,2.8566,0,0,0,3,1,38,Stimuli/neutral/Still.jpg,Stimuli/social/happy/M02-Happy Man.mp4,Stimuli/social/angry/M06-Angry Man.mp4,B,pavi95,001,2022-04-20_15h19.05.627,RALT_PLD,2020.2.10,Win32,60,,,,,,,,,,,,,,,,,,,,,,,,,,,,,,,,,,
B,A,99,A,right,0,2.0878,0,1,1,0,1,99,Stimuli/neutral/Still.jpg,Stimuli/social/happy/F01-Happy Women.mp4,Stimuli/social/angry/F04-Angry Women.mp4,A,pavi95,001,2022-04-20_15h19.05.627,RALT_PLD,2020.2.10,Win32,60,,,,,,,,,,,,,,,,,,,,,,,,,,,,,,,,,,
B,A,38,A,right,0,2.2104,0,2,2,1,1,38,Stimuli/neutral/Still.jpg,Stimuli/social/happy/M02-Happy Man.mp4,Stimuli/social/angry/M06-Angry Man.mp4,A,pavi95,001,2022-04-20_15h19.05.627,RALT_PLD,2020.2.10,Win32,60,,,,,,,,,,,,,,,,,,,,,,,,,,,,,,,,,,
B,A,91,B,left,0,1.5956,0,3,3,2,1,91,Stimuli/neutral/Still.jpg,Stimuli/social/happy/F01-Happy Women.mp4,Stimuli/social/angry/F04-Angry Women.mp4,B,pavi95,001,2022-04-20_15h19.05.627,RALT_PLD,2020.2.10,Win32,60,,,,,,,,,,,,,,,,,,,,,,,,,,,,,,,,,,
B,A,39,B,left,0,2.9398,,,,,,39,Stimuli/neutral/Still.jpg,Stimuli/nonsocial/Right Tick.mp4,Stimuli/nonsocial/Wrong Tick.mp4,B,pavi95,001,2022-04-20_15h19.05.627,RALT_PLD,2020.2.10,Win32,60,0,0,0,3,1,,,,,,,,,,,,,,,,,,,,,,,,,,,,,
B,A,43,A,right,0,2.4435,,,,,,43,Stimuli/neutral/Still.jpg,Stimuli/nonsocial/Right Tick.mp4,Stimuli/nonsocial/Wrong Tick.mp4,A,pavi95,001,2022-04-20_15h19.05.627,RALT_PLD,2020.2.10,Win32,60,0,1,1,2,1,,,,,,,,,,,,,,,,,,,,,,,,,,,,,
B,A,98,A,right,0,1.327,,,,,,98,Stimuli/neutral/Still.jpg,Stimuli/nonsocial/Right Tick.mp4,Stimuli/nonsocial/Wrong Tick.mp4,B,pavi95,001,2022-04-20_15h19.05.627,RALT_PLD,2020.2.10,Win32,60,0,2,2,0,1,,,,,,,,,,,,,,,,,,,,,,,,,,,,,
B,A,53,B,left,0,1.0356,,,,,,53,Stimuli/neutral/Still.jpg,Stimuli/nonsocial/Right Tick.mp4,Stimuli/nonsocial/Wrong Tick.mp4,A,pavi95,001,2022-04-20_15h19.05.627,RALT_PLD,2020.2.10,Win32,60,0,3,3,1,1,,,,,,,,,,,,,,,,,,,,,,,,,,,,,
B,A,38,B,left,0,1.5177,,,,,,38,Stimuli/neutral/Still.jpg,Stimuli/social/happy/M02-Happy Man.mp4,Stimuli/social/angry/M06-Angry Man.mp4,,pavi95,001,2022-04-20_15h19.05.627,RALT_PLD,2020.2.10,Win32,60,,,,,,"[[""B"",""B"",""A"",""A""],[""A"",""A"",""B"",""B""]]",Yes,0,0,0,3,1,B,,,,,,,,,,,,,,,,,,,,,
B,A,99,A,right,0,1.8259,,,,,,99,Stimuli/neutral/Still.jpg,Stimuli/social/happy/F01-Happy Women.mp4,Stimuli/social/angry/F04-Angry Women.mp4,,pavi95,001,2022-04-20_15h19.05.627,RALT_PLD,2020.2.10,Win32,60,,,,,,"[[""B"",""B"",""A"",""A""],[""A"",""A"",""B"",""B""]]",Yes,0,1,1,0,1,A,,,,,,,,,,,,,,,,,,,,,
B,A,38,B,left,0,2.5253,,,,,,38,Stimuli/neutral/Still.jpg,Stimuli/social/happy/M02-Happy Man.mp4,Stimuli/social/angry/M06-Angry Man.mp4,,pavi95,001,2022-04-20_15h19.05.627,RALT_PLD,2020.2.10,Win32,60,,,,,,"[[""B"",""B"",""A"",""A""],[""A"",""A"",""B"",""B""]]",No,0,2,2,1,1,A,,,,,,,,,,,,,,,,,,,,,
B,A,91,B,left,0,1.8126,,,,,,91,Stimuli/neutral/Still.jpg,Stimuli/social/happy/F01-Happy Women.mp4,Stimuli/social/angry/F04-Angry Women.mp4,,pavi95,001,2022-04-20_15h19.05.627,RALT_PLD,2020.2.10,Win32,60,,,,,,"[[""B"",""B"",""A"",""A""],[""A"",""A"",""B"",""B""]]",Yes,0,3,3,2,1,B,,,,,,,,,,,,,,,,,,,,,
A,B,28,B,,,,,,,,,,,,,,pavi95,001,2022-04-20_15h19.05.627,RALT_PLD,2020.2.10,Win32,60,,,,,,B,Yes,,,,,,,right,0,1.7475,Congruent,1,nonsocial,0,0,0,0,1,,,,,,,,,,
A,B,44,A,,,,,,,,,,,,,,pavi95,001,2022-04-20_15h19.05.627,RALT_PLD,2020.2.10,Win32,60,,,,,,B,No,,,,,,,left,0,1.8027,Incongruent,1,nonsocial,1,0,1,0,1,,,,,,,,,,
A,B,14,B,,,,,,,,,,,,,,pavi95,001,2022-04-20_15h19.05.627,RALT_PLD,2020.2.10,Win32,60,,,,,,A,No,,,,,,,right,0,1.6169,Congruent,0,nonsocial,2,0,2,0,1,,,,,,,,,,
A,B,68,A,,,,,,,,,,,,,,pavi95,001,2022-04-20_15h19.05.627,RALT_PLD,2020.2.10,Win32,60,,,,,,A,Yes,,,,,,,left,0,2.0137,Congruent,1,nonsocial,3,0,3,0,1,,,,,,,,,,
,,,,,,,,,,,,,,,,,pavi95,001,2022-04-20_15h19.05.627,RALT_PLD,2020.2.10,Win32,60,,,,,,,,,,,,,,,,,,,,,,,,,0,0,0,0,1,,,,,
B,A,28,A,,,,,,,,,,,,,,pavi95,001,2022-04-20_15h19.05.627,RALT_PLD,2020.2.10,Win32,60,,,,,,B,No,,,,,,,right,0,2.4623,Congruent,0,nonsocial,0,0,0,0,1,,,,,,,,,,
B,A,14,A,,,,,,,,,,,,,,pavi95,001,2022-04-20_15h19.05.627,RALT_PLD,2020.2.10,Win32,60,,,,,,A,Yes,,,,,,,right,0,1.8695,Congruent,1,nonsocial,1,0,1,0,1,,,,,,,,,,
B,A,68,A,,,,,,,,,,,,,,pavi95,001,2022-04-20_15h19.05.627,RALT_PLD,2020.2.10,Win32,60,,,,,,A,Yes,,,,,,,right,0,3.1072,Congruent,1,nonsocial,2,0,2,0,1,,,,,,,,,,
B,A,44,B,,,,,,,,,,,,,,pavi95,001,2022-04-20_15h19.05.627,RALT_PLD,2020.2.10,Win32,60,,,,,,B,Yes,,,,,,,left,0,1.322,Congruent,1,nonsocial,3,0,3,0,1,,,,,,,,,,
,,,,,,,,,,,,,,,,,pavi95,001,2022-04-20_15h19.05.627,RALT_PLD,2020.2.10,Win32,60,,,,,,,,,,,,,,,,,,,,,,,,,1,0,1,0,1,,,,,
B,A,28,B,,,,,,,,,,,,,,pavi95,001,2022-04-20_15h19.05.627,RALT_PLD,2020.2.10,Win32,60,,,,,,B,Yes,,,,,,,left,0,2.9537,Congruent,1,nonsocial,0,0,0,0,1,,,,,,,,,,
B,A,68,A,,,,,,,,,,,,,,pavi95,001,2022-04-20_15h19.05.627,RALT_PLD,2020.2.10,Win32,60,,,,,,A,Yes,,,,,,,right,0,2.2161,Congruent,1,nonsocial,1,0,1,0,1,,,,,,,,,,
B,A,44,B,,,,,,,,,,,,,,pavi95,001,2022-04-20_15h19.05.627,RALT_PLD,2020.2.10,Win32,60,,,,,,B,Yes,,,,,,,left,0,2.1448,Incongruent,0,nonsocial,2,0,2,0,1,,,,,,,,,,
B,A,14,A,,,,,,,,,,,,,,pavi95,001,2022-04-20_15h19.05.627,RALT_PLD,2020.2.10,Win32,60,,,,,,A,Yes,,,,,,,right,0,0.781,Congruent,1,nonsocial,3,0,3,0,1,,,,,,,,,,
,,,,,,,,,,,,,,,,,pavi95,001,2022-04-20_15h19.05.627,RALT_PLD,2020.2.10,Win32,60,,,,,,,,,,,,,,,,,,,,,,,,,2,0,2,0,1,,,,,
B,A,28,B,,,,,,,,,,,,,,pavi95,001,2022-04-20_15h19.05.627,RALT_PLD,2020.2.10,Win32,60,,,,,,B,Yes,,,,,,,left,0,2.8217,Incongruent,0,nonsocial,0,0,0,0,1,,,,,,,,,,
B,A,14,A,,,,,,,,,,,,,,pavi95,001,2022-04-20_15h19.05.627,RALT_PLD,2020.2.10,Win32,60,,,,,,A,Yes,,,,,,,right,0,1.1585,Congruent,1,nonsocial,1,0,1,0,1,,,,,,,,,,
B,A,44,A,,,,,,,,,,,,,,pavi95,001,2022-04-20_15h19.05.627,RALT_PLD,2020.2.10,Win32,60,,,,,,B,No,,,,,,,right,0,0.9382,Congruent,0,nonsocial,2,0,2,0,1,,,,,,,,,,
B,A,68,A,,,,,,,,,,,,,,pavi95,001,2022-04-20_15h19.05.627,RALT_PLD,2020.2.10,Win32,60,,,,,,A,Yes,,,,,,,right,0,0.6326,Congruent,1,nonsocial,3,0,3,0,1,,,,,,,,,,
,,,,,,,,,,,,,,,,,pavi95,001,2022-04-20_15h19.05.627,RALT_PLD,2020.2.10,Win32,60,,,,,,,,,,,,,,,,,,,,,,,,,3,0,3,0,1,,,,,
B,A,14,A,,,,,,,,,,,,,,pavi95,001,2022-04-20_15h19.05.627,RALT_PLD,2020.2.10,Win32,60,,,,,,A,Yes,,,,,,,right,0,1.7953,Congruent,1,nonsocial,0,0,0,0,1,,,,,,,,,,
B,A,44,A,,,,,,,,,,,,,,pavi95,001,2022-04-20_15h19.05.627,RALT_PLD,2020.2.10,Win32,60,,,,,,B,No,,,,,,,right,0,1.3088,Congruent,0,nonsocial,1,0,1,0,1,,,,,,,,,,
B,A,68,A,,,,,,,,,,,,,,pavi95,001,2022-04-20_15h19.05.627,RALT_PLD,2020.2.10,Win32,60,,,,,,A,Yes,,,,,,,right,0,0.7192,Congruent,1,nonsocial,2,0,2,0,1,,,,,,,,,,
B,A,28,A,,,,,,,,,,,,,,pavi95,001,2022-04-20_15h19.05.627,RALT_PLD,2020.2.10,Win32,60,,,,,,B,No,,,,,,,right,0,1.9119,Incongruent,1,nonsocial,3,0,3,0,1,,,,,,,,,,
,,,,,,,,,,,,,,,,,pavi95,001,2022-04-20_15h19.05.627,RALT_PLD,2020.2.10,Win32,60,,,,,,,,,,,,,,,,,,,,,,,,,4,0,4,0,1,,,,,
B,A,44,B,,,,,,,,,,,,,,pavi95,001,2022-04-20_15h19.05.627,RALT_PLD,2020.2.10,Win32,60,,,,,,B,Yes,,,,,,,left,0,4.3449,Congruent,1,nonsocial,0,0,0,0,1,,,,,,,,,,
B,A,68,A,,,,,,,,,,,,,,pavi95,001,2022-04-20_15h19.05.627,RALT_PLD,2020.2.10,Win32,60,,,,,,A,Yes,,,,,,,right,0,0.948,Congruent,1,nonsocial,1,0,1,0,1,,,,,,,,,,
B,A,28,A,,,,,,,,,,,,,,pavi95,001,2022-04-20_15h19.05.627,RALT_PLD,2020.2.10,Win32,60,,,,,,B,No,,,,,,,right,0,0.918,Congruent,0,nonsocial,2,0,2,0,1,,,,,,,,,,
B,A,14,A,,,,,,,,,,,,,,pavi95,001,2022-04-20_15h19.05.627,RALT_PLD,2020.2.10,Win32,60,,,,,,A,Yes,,,,,,,right,0,0.521,Congruent,1,nonsocial,3,0,3,0,1,,,,,,,,,,
,,,,,,,,,,,,,,,,,pavi95,001,2022-04-20_15h19.05.627,RALT_PLD,2020.2.10,Win32,60,,,,,,,,,,,,,,,,,,,,,,,,,5,0,5,0,1,,,,,
,,,,,,,,,,,,,,,,,pavi95,001,2022-04-20_15h19.05.627,RALT_PLD,2020.2.10,Win32,60,,,,,,,,,,,,,,,,,,,,,,,,,,,,,,0,0,0,0,1
A,B,57,A,,,,,,,,,,,,,,pavi95,001,2022-04-20_15h19.05.627,RALT_PLD,2020.2.10,Win32,60,,,,,,B,No,,,,,,,left,0,1.848,Incongruent,1,social,0,0,0,0,1,,,,,,,,,,
A,B,83,B,,,,,,,,,,,,,,pavi95,001,2022-04-20_15h19.05.627,RALT_PLD,2020.2.10,Win32,60,,,,,,B,Yes,,,,,,,right,0,0.7742,Congruent,1,social,1,0,1,0,1,,,,,,,,,,
A,B,63,B,,,,,,,,,,,,,,pavi95,001,2022-04-20_15h19.05.627,RALT_PLD,2020.2.10,Win32,60,,,,,,A,No,,,,,,,right,0,1.9831,Congruent,0,social,2,0,2,0,1,,,,,,,,,,
A,B,15,B,,,,,,,,,,,,,,pavi95,001,2022-04-20_15h19.05.627,RALT_PLD,2020.2.10,Win32,60,,,,,,A,No,,,,,,,right,0,1.55,Congruent,0,social,3,0,3,0,1,,,,,,,,,,
,,,,,,,,,,,,,,,,,pavi95,001,2022-04-20_15h19.05.627,RALT_PLD,2020.2.10,Win32,60,,,,,,,,,,,,,,,,,,,,,,,,,0,0,0,0,1,,,,,
B,A,15,A,,,,,,,,,,,,,,pavi95,001,2022-04-20_15h19.05.627,RALT_PLD,2020.2.10,Win32,60,,,,,,A,Yes,,,,,,,right,0,3.482,Congruent,1,social,0,0,0,0,1,,,,,,,,,,
B,A,63,A,,,,,,,,,,,,,,pavi95,001,2022-04-20_15h19.05.627,RALT_PLD,2020.2.10,Win32,60,,,,,,A,Yes,,,,,,,right,0,3.8878,Congruent,1,social,1,0,1,0,1,,,,,,,,,,
B,A,57,A,,,,,,,,,,,,,,pavi95,001,2022-04-20_15h19.05.627,RALT_PLD,2020.2.10,Win32,60,,,,,,B,No,,,,,,,right,0,2.7671,Congruent,0,social,2,0,2,0,1,,,,,,,,,,
B,A,83,B,,,,,,,,,,,,,,pavi95,001,2022-04-20_15h19.05.627,RALT_PLD,2020.2.10,Win32,60,,,,,,B,Yes,,,,,,,left,0,2.3867,Congruent,1,social,3,0,3,0,1,,,,,,,,,,
,,,,,,,,,,,,,,,,,pavi95,001,2022-04-20_15h19.05.627,RALT_PLD,2020.2.10,Win32,60,,,,,,,,,,,,,,,,,,,,,,,,,1,0,1,0,1,,,,,
B,A,57,B,,,,,,,,,,,,,,pavi95,001,2022-04-20_15h19.05.627,RALT_PLD,2020.2.10,Win32,60,,,,,,B,Yes,,,,,,,left,0,4.6254,Congruent,1,social,0,0,0,0,1,,,,,,,,,,
B,A,63,A,,,,,,,,,,,,,,pavi95,001,2022-04-20_15h19.05.627,RALT_PLD,2020.2.10,Win32,60,,,,,,A,Yes,,,,,,,right,0,1.6135,Congruent,1,social,1,0,1,0,1,,,,,,,,,,
B,A,15,A,,,,,,,,,,,,,,pavi95,001,2022-04-20_15h19.05.627,RALT_PLD,2020.2.10,Win32,60,,,,,,A,Yes,,,,,,,right,0,2.0736,Congruent,1,social,2,0,2,0,1,,,,,,,,,,
B,A,83,B,,,,,,,,,,,,,,pavi95,001,2022-04-20_15h19.05.627,RALT_PLD,2020.2.10,Win32,60,,,,,,B,Yes,,,,,,,left,0,1.1428,Congruent,1,social,3,0,3,0,1,,,,,,,,,,
,,,,,,,,,,,,,,,,,pavi95,001,2022-04-20_15h19.05.627,RALT_PLD,2020.2.10,Win32,60,,,,,,,,,,,,,,,,,,,,,,,,,2,0,2,0,1,,,,,
A,B,15,A,,,,,,,,,,,,,,pavi95,001,2022-04-20_15h19.05.627,RALT_PLD,2020.2.10,Win32,60,,,,,,A,Yes,,,,,,,left,0,1.73,Congruent,1,social,0,0,0,0,1,,,,,,,,,,
A,B,63,B,,,,,,,,,,,,,,pavi95,001,2022-04-20_15h19.05.627,RALT_PLD,2020.2.10,Win32,60,,,,,,A,No,,,,,,,right,0,2.8135,Incongruent,1,social,1,0,1,0,1,,,,,,,,,,
A,B,83,B,,,,,,,,,,,,,,pavi95,001,2022-04-20_15h19.05.627,RALT_PLD,2020.2.10,Win32,60,,,,,,B,Yes,,,,,,,right,0,2.8341,Incongruent,0,social,2,0,2,0,1,,,,,,,,,,
A,B,57,A,,,,,,,,,,,,,,pavi95,001,2022-04-20_15h19.05.627,RALT_PLD,2020.2.10,Win32,60,,,,,,B,No,,,,,,,left,0,1.2044,Congruent,0,social,3,0,3,0,1,,,,,,,,,,
,,,,,,,,,,,,,,,,,pavi95,001,2022-04-20_15h19.05.627,RALT_PLD,2020.2.10,Win32,60,,,,,,,,,,,,,,,,,,,,,,,,,3,0,3,0,1,,,,,
B,A,83,B,,,,,,,,,,,,,,pavi95,001,2022-04-20_15h19.05.627,RALT_PLD,2020.2.10,Win32,60,,,,,,B,Yes,,,,,,,left,0,2.5224,Congruent,1,social,0,0,0,0,1,,,,,,,,,,
B,A,63,A,,,,,,,,,,,,,,pavi95,001,2022-04-20_15h19.05.627,RALT_PLD,2020.2.10,Win32,60,,,,,,A,Yes,,,,,,,right,0,1.4461,Congruent,1,social,1,0,1,0,1,,,,,,,,,,
B,A,15,A,,,,,,,,,,,,,,pavi95,001,2022-04-20_15h19.05.627,RALT_PLD,2020.2.10,Win32,60,,,,,,A,Yes,,,,,,,right,0,1.977,Congruent,1,social,2,0,2,0,1,,,,,,,,,,
B,A,57,A,,,,,,,,,,,,,,pavi95,001,2022-04-20_15h19.05.627,RALT_PLD,2020.2.10,Win32,60,,,,,,B,No,,,,,,,right,0,0.8268,Congruent,0,social,3,0,3,0,1,,,,,,,,,,
,,,,,,,,,,,,,,,,,pavi95,001,2022-04-20_15h19.05.627,RALT_PLD,2020.2.10,Win32,60,,,,,,,,,,,,,,,,,,,,,,,,,4,0,4,0,1,,,,,
A,B,63,A,,,,,,,,,,,,,,pavi95,001,2022-04-20_15h19.05.627,RALT_PLD,2020.2.10,Win32,60,,,,,,A,Yes,,,,,,,left,0,2.0726,Congruent,1,social,0,0,0,0,1,,,,,,,,,,
A,B,83,B,,,,,,,,,,,,,,pavi95,001,2022-04-20_15h19.05.627,RALT_PLD,2020.2.10,Win32,60,,,,,,B,Yes,,,,,,,right,0,0.6825,Congruent,1,social,1,0,1,0,1,,,,,,,,,,
A,B,15,B,,,,,,,,,,,,,,pavi95,001,2022-04-20_15h19.05.627,RALT_PLD,2020.2.10,Win32,60,,,,,,A,No,,,,,,,right,0,1.0898,Congruent,0,social,2,0,2,0,1,,,,,,,,,,
A,B,57,B,,,,,,,,,,,,,,pavi95,001,2022-04-20_15h19.05.627,RALT_PLD,2020.2.10,Win32,60,,,,,,B,Yes,,,,,,,right,0,1.8694,Congruent,1,social,3,0,3,0,1,,,,,,,,,,
,,,,,,,,,,,,,,,,,pavi95,001,2022-04-20_15h19.05.627,RALT_PLD,2020.2.10,Win32,60,,,,,,,,,,,,,,,,,,,,,,,,,5,0,5,0,1,,,,,
,,,,,,,,,,,,,,,,,pavi95,001,2022-04-20_15h19.05.627,RALT_PLD,2020.2.10,Win32,60,,,,,,,,,,,,,,,,,,,,,,,,,,,,,,1,0,1,0,1
A,B,14,A,,,,,,,,,,,,,,pavi95,001,2022-04-20_15h19.05.627,RALT_PLD,2020.2.10,Win32,60,,,,,,A,Yes,,,,,,,left,0,2.9223,Congruent,1,nonsocial,0,0,0,0,1,,,,,,,,,,
A,B,44,A,,,,,,,,,,,,,,pavi95,001,2022-04-20_15h19.05.627,RALT_PLD,2020.2.10,Win32,60,,,,,,B,No,,,,,,,left,0,2.3063,Incongruent,1,nonsocial,1,0,1,0,1,,,,,,,,,,
A,B,28,B,,,,,,,,,,,,,,pavi95,001,2022-04-20_15h19.05.627,RALT_PLD,2020.2.10,Win32,60,,,,,,B,Yes,,,,,,,right,0,2.0454,Congruent,1,nonsocial,2,0,2,0,1,,,,,,,,,,
A,B,68,A,,,,,,,,,,,,,,pavi95,001,2022-04-20_15h19.05.627,RALT_PLD,2020.2.10,Win32,60,,,,,,A,Yes,,,,,,,left,0,1.1934,Incongruent,0,nonsocial,3,0,3,0,1,,,,,,,,,,
,,,,,,,,,,,,,,,,,pavi95,001,2022-04-20_15h19.05.627,RALT_PLD,2020.2.10,Win32,60,,,,,,,,,,,,,,,,,,,,,,,,,0,0,0,0,1,,,,,
A,B,68,B,,,,,,,,,,,,,,pavi95,001,2022-04-20_15h19.05.627,RALT_PLD,2020.2.10,Win32,60,,,,,,A,No,,,,,,,right,0,0.9659,Congruent,0,nonsocial,0,0,0,0,1,,,,,,,,,,
A,B,44,A,,,,,,,,,,,,,,pavi95,001,2022-04-20_15h19.05.627,RALT_PLD,2020.2.10,Win32,60,,,,,,B,No,,,,,,,left,0,1.2367,Congruent,0,nonsocial,1,0,1,0,1,,,,,,,,,,
A,B,14,A,,,,,,,,,,,,,,pavi95,001,2022-04-20_15h19.05.627,RALT_PLD,2020.2.10,Win32,60,,,,,,A,Yes,,,,,,,left,0,1.8853,Incongruent,0,nonsocial,2,0,2,0,1,,,,,,,,,,
A,B,28,A,,,,,,,,,,,,,,pavi95,001,2022-04-20_15h19.05.627,RALT_PLD,2020.2.10,Win32,60,,,,,,B,No,,,,,,,left,0,0.3968,Congruent,0,nonsocial,3,0,3,0,1,,,,,,,,,,
,,,,,,,,,,,,,,,,,pavi95,001,2022-04-20_15h19.05.627,RALT_PLD,2020.2.10,Win32,60,,,,,,,,,,,,,,,,,,,,,,,,,1,0,1,0,1,,,,,
A,B,28,B,,,,,,,,,,,,,,pavi95,001,2022-04-20_15h19.05.627,RALT_PLD,2020.2.10,Win32,60,,,,,,B,Yes,,,,,,,right,0,1.2863,Congruent,1,nonsocial,0,0,0,0,1,,,,,,,,,,
A,B,14,A,,,,,,,,,,,,,,pavi95,001,2022-04-20_15h19.05.627,RALT_PLD,2020.2.10,Win32,60,,,,,,A,Yes,,,,,,,left,0,0.5101,Congruent,1,nonsocial,1,0,1,0,1,,,,,,,,,,
A,B,44,A,,,,,,,,,,,,,,pavi95,001,2022-04-20_15h19.05.627,RALT_PLD,2020.2.10,Win32,60,,,,,,B,No,,,,,,,left,0,0.6702,Congruent,0,nonsocial,2,0,2,0,1,,,,,,,,,,
A,B,68,B,,,,,,,,,,,,,,pavi95,001,2022-04-20_15h19.05.627,RALT_PLD,2020.2.10,Win32,60,,,,,,A,No,,,,,,,right,0,0.8776,Incongruent,1,nonsocial,3,0,3,0,1,,,,,,,,,,
,,,,,,,,,,,,,,,,,pavi95,001,2022-04-20_15h19.05.627,RALT_PLD,2020.2.10,Win32,60,,,,,,,,,,,,,,,,,,,,,,,,,2,0,2,0,1,,,,,
A,B,28,B,,,,,,,,,,,,,,pavi95,001,2022-04-20_15h19.05.627,RALT_PLD,2020.2.10,Win32,60,,,,,,B,Yes,,,,,,,right,0,0.9801,Incongruent,0,nonsocial,0,0,0,0,1,,,,,,,,,,
A,B,44,B,,,,,,,,,,,,,,pavi95,001,2022-04-20_15h19.05.627,RALT_PLD,2020.2.10,Win32,60,,,,,,B,Yes,,,,,,,right,0,0.7551,Congruent,1,nonsocial,1,0,1,0,1,,,,,,,,,,
A,B,14,B,,,,,,,,,,,,,,pavi95,001,2022-04-20_15h19.05.627,RALT_PLD,2020.2.10,Win32,60,,,,,,A,No,,,,,,,right,0,1.2961,Congruent,0,nonsocial,2,0,2,0,1,,,,,,,,,,
A,B,68,A,,,,,,,,,,,,,,pavi95,001,2022-04-20_15h19.05.627,RALT_PLD,2020.2.10,Win32,60,,,,,,A,Yes,,,,,,,left,0,0.9728,Congruent,1,nonsocial,3,0,3,0,1,,,,,,,,,,
,,,,,,,,,,,,,,,,,pavi95,001,2022-04-20_15h19.05.627,RALT_PLD,2020.2.10,Win32,60,,,,,,,,,,,,,,,,,,,,,,,,,3,0,3,0,1,,,,,
A,B,44,A,,,,,,,,,,,,,,pavi95,001,2022-04-20_15h19.05.627,RALT_PLD,2020.2.10,Win32,60,,,,,,B,No,,,,,,,left,0,1.078,Congruent,0,nonsocial,0,0,0,0,1,,,,,,,,,,
A,B,68,A,,,,,,,,,,,,,,pavi95,001,2022-04-20_15h19.05.627,RALT_PLD,2020.2.10,Win32,60,,,,,,A,Yes,,,,,,,left,0,1.1518,Congruent,1,nonsocial,1,0,1,0,1,,,,,,,,,,
A,B,14,B,,,,,,,,,,,,,,pavi95,001,2022-04-20_15h19.05.627,RALT_PLD,2020.2.10,Win32,60,,,,,,A,No,,,,,,,right,0,0.8075,Congruent,0,nonsocial,2,0,2,0,1,,,,,,,,,,
A,B,28,A,,,,,,,,,,,,,,pavi95,001,2022-04-20_15h19.05.627,RALT_PLD,2020.2.10,Win32,60,,,,,,B,No,,,,,,,left,0,0.6018,Congruent,0,nonsocial,3,0,3,0,1,,,,,,,,,,
,,,,,,,,,,,,,,,,,pavi95,001,2022-04-20_15h19.05.627,RALT_PLD,2020.2.10,Win32,60,,,,,,,,,,,,,,,,,,,,,,,,,4,0,4,0,1,,,,,
B,A,68,B,,,,,,,,,,,,,,pavi95,001,2022-04-20_15h19.05.627,RALT_PLD,2020.2.10,Win32,60,,,,,,A,No,,,,,,,left,0,2.1113,Congruent,0,nonsocial,0,0,0,0,1,,,,,,,,,,
B,A,14,B,,,,,,,,,,,,,,pavi95,001,2022-04-20_15h19.05.627,RALT_PLD,2020.2.10,Win32,60,,,,,,A,No,,,,,,,left,0,0.8547,Congruent,0,nonsocial,1,0,1,0,1,,,,,,,,,,
B,A,44,A,,,,,,,,,,,,,,pavi95,001,2022-04-20_15h19.05.627,RALT_PLD,2020.2.10,Win32,60,,,,,,B,No,,,,,,,right,0,0.7011,Congruent,0,nonsocial,2,0,2,0,1,,,,,,,,,,
B,A,28,B,,,,,,,,,,,,,,pavi95,001,2022-04-20_15h19.05.627,RALT_PLD,2020.2.10,Win32,60,,,,,,B,Yes,,,,,,,left,0,1.1155,Congruent,1,nonsocial,3,0,3,0,1,,,,,,,,,,
,,,,,,,,,,,,,,,,,pavi95,001,2022-04-20_15h19.05.627,RALT_PLD,2020.2.10,Win32,60,,,,,,,,,,,,,,,,,,,,,,,,,5,0,5,0,1,,,,,
,,,,,,,,,,,,,,,,,pavi95,001,2022-04-20_15h19.05.627,RALT_PLD,2020.2.10,Win32,60,,,,,,,,,,,,,,,,,,,,,,,,,,,,,,2,0,2,0,1
A,B,63,B,,,,,,,,,,,,,,pavi95,001,2022-04-20_15h19.05.627,RALT_PLD,2020.2.10,Win32,60,,,,,,A,No,,,,,,,right,0,2.4693,Congruent,0,social,0,0,0,0,1,,,,,,,,,,
A,B,83,A,,,,,,,,,,,,,,pavi95,001,2022-04-20_15h19.05.627,RALT_PLD,2020.2.10,Win32,60,,,,,,B,No,,,,,,,left,0,0.836,Congruent,0,social,1,0,1,0,1,,,,,,,,,,
A,B,57,A,,,,,,,,,,,,,,pavi95,001,2022-04-20_15h19.05.627,RALT_PLD,2020.2.10,Win32,60,,,,,,B,No,,,,,,,left,0,1.0343,Congruent,0,social,2,0,2,0,1,,,,,,,,,,
A,B,15,B,,,,,,,,,,,,,,pavi95,001,2022-04-20_15h19.05.627,RALT_PLD,2020.2.10,Win32,60,,,,,,A,No,,,,,,,right,0,0.6117,Congruent,0,social,3,0,3,0,1,,,,,,,,,,
,,,,,,,,,,,,,,,,,pavi95,001,2022-04-20_15h19.05.627,RALT_PLD,2020.2.10,Win32,60,,,,,,,,,,,,,,,,,,,,,,,,,0,0,0,0,1,,,,,
B,A,57,A,,,,,,,,,,,,,,pavi95,001,2022-04-20_15h19.05.627,RALT_PLD,2020.2.10,Win32,60,,,,,,B,No,,,,,,,right,0,1.7035,Congruent,0,social,0,0,0,0,1,,,,,,,,,,
B,A,63,B,,,,,,,,,,,,,,pavi95,001,2022-04-20_15h19.05.627,RALT_PLD,2020.2.10,Win32,60,,,,,,A,No,,,,,,,left,0,1.8,Congruent,0,social,1,0,1,0,1,,,,,,,,,,
B,A,15,A,,,,,,,,,,,,,,pavi95,001,2022-04-20_15h19.05.627,RALT_PLD,2020.2.10,Win32,60,,,,,,A,Yes,,,,,,,right,0,0.8724,Incongruent,0,social,2,0,2,0,1,,,,,,,,,,
B,A,83,A,,,,,,,,,,,,,,pavi95,001,2022-04-20_15h19.05.627,RALT_PLD,2020.2.10,Win32,60,,,,,,B,No,,,,,,,right,0,1.3904,Congruent,0,social,3,0,3,0,1,,,,,,,,,,
,,,,,,,,,,,,,,,,,pavi95,001,2022-04-20_15h19.05.627,RALT_PLD,2020.2.10,Win32,60,,,,,,,,,,,,,,,,,,,,,,,,,1,0,1,0,1,,,,,
B,A,83,B,,,,,,,,,,,,,,pavi95,001,2022-04-20_15h19.05.627,RALT_PLD,2020.2.10,Win32,60,,,,,,B,Yes,,,,,,,left,0,1.7247,Congruent,1,social,0,0,0,0,1,,,,,,,,,,
B,A,63,A,,,,,,,,,,,,,,pavi95,001,2022-04-20_15h19.05.627,RALT_PLD,2020.2.10,Win32,60,,,,,,A,Yes,,,,,,,right,0,1.5729,Congruent,1,social,1,0,1,0,1,,,,,,,,,,
B,A,57,B,,,,,,,,,,,,,,pavi95,001,2022-04-20_15h19.05.627,RALT_PLD,2020.2.10,Win32,60,,,,,,B,Yes,,,,,,,left,0,1.9273,Congruent,1,social,2,0,2,0,1,,,,,,,,,,
B,A,15,B,,,,,,,,,,,,,,pavi95,001,2022-04-20_15h19.05.627,RALT_PLD,2020.2.10,Win32,60,,,,,,A,No,,,,,,,left,0,1.543,Incongruent,1,social,3,0,3,0,1,,,,,,,,,,
,,,,,,,,,,,,,,,,,pavi95,001,2022-04-20_15h19.05.627,RALT_PLD,2020.2.10,Win32,60,,,,,,,,,,,,,,,,,,,,,,,,,2,0,2,0,1,,,,,
B,A,83,A,,,,,,,,,,,,,,pavi95,001,2022-04-20_15h19.05.627,RALT_PLD,2020.2.10,Win32,60,,,,,,B,No,,,,,,,right,0,1.2517,Congruent,0,social,0,0,0,0,1,,,,,,,,,,
B,A,57,B,,,,,,,,,,,,,,pavi95,001,2022-04-20_15h19.05.627,RALT_PLD,2020.2.10,Win32,60,,,,,,B,Yes,,,,,,,left,0,0.6039,Congruent,1,social,1,0,1,0,1,,,,,,,,,,
B,A,63,A,,,,,,,,,,,,,,pavi95,001,2022-04-20_15h19.05.627,RALT_PLD,2020.2.10,Win32,60,,,,,,A,Yes,,,,,,,right,0,0.3862,Congruent,1,social,2,0,2,0,1,,,,,,,,,,
B,A,15,B,,,,,,,,,,,,,,pavi95,001,2022-04-20_15h19.05.627,RALT_PLD,2020.2.10,Win32,60,,,,,,A,No,,,,,,,left,0,0.5962,Congruent,0,social,3,0,3,0,1,,,,,,,,,,
,,,,,,,,,,,,,,,,,pavi95,001,2022-04-20_15h19.05.627,RALT_PLD,2020.2.10,Win32,60,,,,,,,,,,,,,,,,,,,,,,,,,3,0,3,0,1,,,,,
B,A,63,A,,,,,,,,,,,,,,pavi95,001,2022-04-20_15h19.05.627,RALT_PLD,2020.2.10,Win32,60,,,,,,A,Yes,,,,,,,right,0,1.8139,Congruent,1,social,0,0,0,0,1,,,,,,,,,,
B,A,57,B,,,,,,,,,,,,,,pavi95,001,2022-04-20_15h19.05.627,RALT_PLD,2020.2.10,Win32,60,,,,,,B,Yes,,,,,,,left,0,1.3132,Congruent,1,social,1,0,1,0,1,,,,,,,,,,
B,A,83,A,,,,,,,,,,,,,,pavi95,001,2022-04-20_15h19.05.627,RALT_PLD,2020.2.10,Win32,60,,,,,,B,No,,,,,,,right,0,0.6087,Congruent,0,social,2,0,2,0,1,,,,,,,,,,
B,A,15,B,,,,,,,,,,,,,,pavi95,001,2022-04-20_15h19.05.627,RALT_PLD,2020.2.10,Win32,60,,,,,,A,No,,,,,,,left,0,0.9422,Congruent,0,social,3,0,3,0,1,,,,,,,,,,
,,,,,,,,,,,,,,,,,pavi95,001,2022-04-20_15h19.05.627,RALT_PLD,2020.2.10,Win32,60,,,,,,,,,,,,,,,,,,,,,,,,,4,0,4,0,1,,,,,
B,A,57,A,,,,,,,,,,,,,,pavi95,001,2022-04-20_15h19.05.627,RALT_PLD,2020.2.10,Win32,60,,,,,,B,No,,,,,,,right,0,1.82,Congruent,0,social,0,0,0,0,1,,,,,,,,,,
B,A,63,B,,,,,,,,,,,,,,pavi95,001,2022-04-20_15h19.05.627,RALT_PLD,2020.2.10,Win32,60,,,,,,A,No,,,,,,,left,0,0.4153,Congruent,0,social,1,0,1,0,1,,,,,,,,,,
B,A,83,A,,,,,,,,,,,,,,pavi95,001,2022-04-20_15h19.05.627,RALT_PLD,2020.2.10,Win32,60,,,,,,B,No,,,,,,,right,0,1.1261,Congruent,0,social,2,0,2,0,1,,,,,,,,,,
B,A,15,A,,,,,,,,,,,,,,pavi95,001,2022-04-20_15h19.05.627,RALT_PLD,2020.2.10,Win32,60,,,,,,A,Yes,,,,,,,right,0,1.1336,Congruent,1,social,3,0,3,0,1,,,,,,,,,,
,,,,,,,,,,,,,,,,,pavi95,001,2022-04-20_15h19.05.627,RALT_PLD,2020.2.10,Win32,60,,,,,,,,,,,,,,,,,,,,,,,,,5,0,5,0,1,,,,,
,,,,,,,,,,,,,,,,,pavi95,001,2022-04-20_15h19.05.627,RALT_PLD,2020.2.10,Win32,60,,,,,,,,,,,,,,,,,,,,,,,,,,,,,,3,0,3,0,1
