left,right,stim,response_training.keys,response_training.corr,training_social.thisRepN,training_social.thisTrialN,training_social.thisN,training_social.thisIndex,training_social.ran,Stim,filename_neutral,filename_feedback_happy,filename_feedback_angry,CorrCatTrain,participant,session,date,expName,psychopyVersion,OS,frameRate,ParticipantAnswer,response_training.rt,training_nonsocial.thisRepN,training_nonsocial.thisTrialN,training_nonsocial.thisN,training_nonsocial.thisIndex,training_nonsocial.ran,CorrCat,CorrectAns,prob_fb.thisRepN,prob_fb.thisTrialN,prob_fb.thisN,prob_fb.thisIndex,prob_fb.ran,CorrCatProb,response_training_2.keys,response_training_2.corr,response_training_2.rt,Congr/Incongr,Reward,BlockType,trials.thisRepN,trials.thisTrialN,trials.thisN,trials.thisIndex,trials.ran,cycles.thisRepN,cycles.thisTrialN,cycles.thisN,cycles.thisIndex,cycles.ran,blocks.thisRepN,blocks.thisTrialN,blocks.thisN,blocks.thisIndex,blocks.ran
A,B,38,,0,0,0,0,3,1,38,Stimuli/neutral/Still.jpg,Stimuli/social/happy/M02-Happy Man.mp4,Stimuli/social/angry/M06-Angry Man.mp4,B,sasu98,001,2022-05-31_13h29.49.994,RALT_PLD,2020.2.10,Win32,60,,,,,,,,,,,,,,,,,,,,,,,,,,,,,,,,,,,,
A,B,91,right,0,0,1,1,2,1,91,Stimuli/neutral/Still.jpg,Stimuli/social/happy/F01-Happy Women.mp4,Stimuli/social/angry/F04-Angry Women.mp4,B,sasu98,001,2022-05-31_13h29.49.994,RALT_PLD,2020.2.10,Win32,60,B,2.7023,,,,,,,,,,,,,,,,,,,,,,,,,,,,,,,,,,
A,B,38,left,0,0,2,2,1,1,38,Stimuli/neutral/Still.jpg,Stimuli/social/happy/M02-Happy Man.mp4,Stimuli/social/angry/M06-Angry Man.mp4,A,sasu98,001,2022-05-31_13h29.49.994,RALT_PLD,2020.2.10,Win32,60,A,0.7764,,,,,,,,,,,,,,,,,,,,,,,,,,,,,,,,,,
A,B,99,right,0,0,3,3,0,1,99,Stimuli/neutral/Still.jpg,Stimuli/social/happy/F01-Happy Women.mp4,Stimuli/social/angry/F04-Angry Women.mp4,A,sasu98,001,2022-05-31_13h29.49.994,RALT_PLD,2020.2.10,Win32,60,B,1.0416,,,,,,,,,,,,,,,,,,,,,,,,,,,,,,,,,,
A,B,43,left,0,,,,,,43,Stimuli/neutral/Still.jpg,Stimuli/nonsocial/Right Tick.mp4,Stimuli/nonsocial/Wrong Tick.mp4,A,sasu98,001,2022-05-31_13h29.49.994,RALT_PLD,2020.2.10,Win32,60,A,4.4264,0,0,0,2,1,,,,,,,,,,,,,,,,,,,,,,,,,,,,,
A,B,53,right,0,,,,,,53,Stimuli/neutral/Still.jpg,Stimuli/nonsocial/Right Tick.mp4,Stimuli/nonsocial/Wrong Tick.mp4,A,sasu98,001,2022-05-31_13h29.49.994,RALT_PLD,2020.2.10,Win32,60,B,2.009,0,1,1,1,1,,,,,,,,,,,,,,,,,,,,,,,,,,,,,
A,B,39,,0,,,,,,39,Stimuli/neutral/Still.jpg,Stimuli/nonsocial/Right Tick.mp4,Stimuli/nonsocial/Wrong Tick.mp4,B,sasu98,001,2022-05-31_13h29.49.994,RALT_PLD,2020.2.10,Win32,60,,,0,2,2,3,1,,,,,,,,,,,,,,,,,,,,,,,,,,,,,
A,B,98,left,0,,,,,,98,Stimuli/neutral/Still.jpg,Stimuli/nonsocial/Right Tick.mp4,Stimuli/nonsocial/Wrong Tick.mp4,B,sasu98,001,2022-05-31_13h29.49.994,RALT_PLD,2020.2.10,Win32,60,A,1.1314,0,3,3,0,1,,,,,,,,,,,,,,,,,,,,,,,,,,,,,
A,B,91,right,0,,,,,,91,Stimuli/neutral/Still.jpg,Stimuli/social/happy/F01-Happy Women.mp4,Stimuli/social/angry/F04-Angry Women.mp4,,sasu98,001,2022-05-31_13h29.49.994,RALT_PLD,2020.2.10,Win32,60,B,1.9484,,,,,,"[[""B"",""B"",""A"",""A""],[""A"",""B"",""A"",""B""]]",Yes,0,0,0,2,1,B,,,,,,,,,,,,,,,,,,,,,
A,B,38,left,0,,,,,,38,Stimuli/neutral/Still.jpg,Stimuli/social/happy/M02-Happy Man.mp4,Stimuli/social/angry/M06-Angry Man.mp4,,sasu98,001,2022-05-31_13h29.49.994,RALT_PLD,2020.2.10,Win32,60,A,2.8828,,,,,,"[[""B"",""B"",""A"",""A""],[""A"",""B"",""A"",""B""]]",Yes,0,1,1,1,1,A,,,,,,,,,,,,,,,,,,,,,
A,B,99,left,0,,,,,,99,Stimuli/neutral/Still.jpg,Stimuli/social/happy/F01-Happy Women.mp4,Stimuli/social/angry/F04-Angry Women.mp4,,sasu98,001,2022-05-31_13h29.49.994,RALT_PLD,2020.2.10,Win32,60,A,1.6743,,,,,,"[[""B"",""B"",""A"",""A""],[""A"",""B"",""A"",""B""]]",Yes,0,2,2,0,1,A,,,,,,,,,,,,,,,,,,,,,
A,B,38,right,0,,,,,,38,Stimuli/neutral/Still.jpg,Stimuli/social/happy/M02-Happy Man.mp4,Stimuli/social/angry/M06-Angry Man.mp4,,sasu98,001,2022-05-31_13h29.49.994,RALT_PLD,2020.2.10,Win32,60,B,1.4355,,,,,,"[[""B"",""B"",""A"",""A""],[""A"",""B"",""A"",""B""]]",Yes,0,3,3,3,1,B,,,,,,,,,,,,,,,,,,,,,
B,A,70,,,,,,,,,,,,,sasu98,001,2022-05-31_13h29.49.994,RALT_PLD,2020.2.10,Win32,60,B,,,,,,,A,No,,,,,,,left,0,1.1337,Congruent,0,social,0,0,0,0,1,,,,,,,,,,
B,A,50,,,,,,,,,,,,,sasu98,001,2022-05-31_13h29.49.994,RALT_PLD,2020.2.10,Win32,60,A,,,,,,,A,Yes,,,,,,,right,0,2.0653,Congruent,1,social,1,0,1,0,1,,,,,,,,,,
B,A,24,,,,,,,,,,,,,sasu98,001,2022-05-31_13h29.49.994,RALT_PLD,2020.2.10,Win32,60,B,,,,,,,B,Yes,,,,,,,left,0,3.602,Congruent,1,social,2,0,2,0,1,,,,,,,,,,
B,A,98,,,,,,,,,,,,,sasu98,001,2022-05-31_13h29.49.994,RALT_PLD,2020.2.10,Win32,60,B,,,,,,,B,Yes,,,,,,,left,0,1.3373,Congruent,1,social,3,0,3,0,1,,,,,,,,,,
,,,,,,,,,,,,,,,sasu98,001,2022-05-31_13h29.49.994,RALT_PLD,2020.2.10,Win32,60,,,,,,,,,,,,,,,,,,,,,,,,,,,0,0,0,0,1,,,,,
B,A,98,,,,,,,,,,,,,sasu98,001,2022-05-31_13h29.49.994,RALT_PLD,2020.2.10,Win32,60,A,,,,,,,B,No,,,,,,,right,0,3.7833,Congruent,0,social,0,0,0,0,1,,,,,,,,,,
B,A,70,,,,,,,,,,,,,sasu98,001,2022-05-31_13h29.49.994,RALT_PLD,2020.2.10,Win32,60,A,,,,,,,A,Yes,,,,,,,right,0,5.4086,Incongruent,0,social,1,0,1,0,1,,,,,,,,,,
B,A,50,,,,,,,,,,,,,sasu98,001,2022-05-31_13h29.49.994,RALT_PLD,2020.2.10,Win32,60,B,,,,,,,A,No,,,,,,,left,0,2.5433,Congruent,0,social,2,0,2,0,1,,,,,,,,,,
B,A,24,,,,,,,,,,,,,sasu98,001,2022-05-31_13h29.49.994,RALT_PLD,2020.2.10,Win32,60,B,,,,,,,B,Yes,,,,,,,left,0,3.7399,Congruent,1,social,3,0,3,0,1,,,,,,,,,,
,,,,,,,,,,,,,,,sasu98,001,2022-05-31_13h29.49.994,RALT_PLD,2020.2.10,Win32,60,,,,,,,,,,,,,,,,,,,,,,,,,,,1,0,1,0,1,,,,,
A,B,24,,,,,,,,,,,,,sasu98,001,2022-05-31_13h29.49.994,RALT_PLD,2020.2.10,Win32,60,B,,,,,,,B,Yes,,,,,,,right,0,5.4192,Congruent,1,social,0,0,0,0,1,,,,,,,,,,
A,B,70,,,,,,,,,,,,,sasu98,001,2022-05-31_13h29.49.994,RALT_PLD,2020.2.10,Win32,60,A,,,,,,,A,Yes,,,,,,,left,0,3.7301,Congruent,1,social,1,0,1,0,1,,,,,,,,,,
A,B,50,,,,,,,,,,,,,sasu98,001,2022-05-31_13h29.49.994,RALT_PLD,2020.2.10,Win32,60,B,,,,,,,A,No,,,,,,,right,0,4.6651,Congruent,0,social,2,0,2,0,1,,,,,,,,,,
A,B,98,,,,,,,,,,,,,sasu98,001,2022-05-31_13h29.49.994,RALT_PLD,2020.2.10,Win32,60,A,,,,,,,B,No,,,,,,,left,0,1.4009,Congruent,0,social,3,0,3,0,1,,,,,,,,,,
,,,,,,,,,,,,,,,sasu98,001,2022-05-31_13h29.49.994,RALT_PLD,2020.2.10,Win32,60,,,,,,,,,,,,,,,,,,,,,,,,,,,2,0,2,0,1,,,,,
A,B,24,,,,,,,,,,,,,sasu98,001,2022-05-31_13h29.49.994,RALT_PLD,2020.2.10,Win32,60,B,,,,,,,B,Yes,,,,,,,right,0,3.6651,Congruent,1,social,0,0,0,0,1,,,,,,,,,,
A,B,70,,,,,,,,,,,,,sasu98,001,2022-05-31_13h29.49.994,RALT_PLD,2020.2.10,Win32,60,A,,,,,,,A,Yes,,,,,,,left,0,5.2559,Congruent,1,social,1,0,1,0,1,,,,,,,,,,
A,B,50,,,,,,,,,,,,,sasu98,001,2022-05-31_13h29.49.994,RALT_PLD,2020.2.10,Win32,60,B,,,,,,,A,No,,,,,,,right,0,2.3457,Incongruent,1,social,2,0,2,0,1,,,,,,,,,,
A,B,98,,,,,,,,,,,,,sasu98,001,2022-05-31_13h29.49.994,RALT_PLD,2020.2.10,Win32,60,A,,,,,,,B,No,,,,,,,left,0,1.8138,Congruent,0,social,3,0,3,0,1,,,,,,,,,,
,,,,,,,,,,,,,,,sasu98,001,2022-05-31_13h29.49.994,RALT_PLD,2020.2.10,Win32,60,,,,,,,,,,,,,,,,,,,,,,,,,,,3,0,3,0,1,,,,,
A,B,70,,,,,,,,,,,,,sasu98,001,2022-05-31_13h29.49.994,RALT_PLD,2020.2.10,Win32,60,B,,,,,,,A,No,,,,,,,right,0,3.5386,Congruent,0,social,0,0,0,0,1,,,,,,,,,,
A,B,98,,,,,,,,,,,,,sasu98,001,2022-05-31_13h29.49.994,RALT_PLD,2020.2.10,Win32,60,A,,,,,,,B,No,,,,,,,left,0,1.4738,Congruent,0,social,1,0,1,0,1,,,,,,,,,,
A,B,50,,,,,,,,,,,,,sasu98,001,2022-05-31_13h29.49.994,RALT_PLD,2020.2.10,Win32,60,B,,,,,,,A,No,,,,,,,right,0,2.6599,Congruent,0,social,2,0,2,0,1,,,,,,,,,,
A,B,24,,,,,,,,,,,,,sasu98,001,2022-05-31_13h29.49.994,RALT_PLD,2020.2.10,Win32,60,,,,,,,,B,No,,,,,,,,0,,Congruent,0,social,3,0,3,0,1,,,,,,,,,,
,,,,,,,,,,,,,,,sasu98,001,2022-05-31_13h29.49.994,RALT_PLD,2020.2.10,Win32,60,,,,,,,,,,,,,,,,,,,,,,,,,,,4,0,4,0,1,,,,,
B,A,98,,,,,,,,,,,,,sasu98,001,2022-05-31_13h29.49.994,RALT_PLD,2020.2.10,Win32,60,A,,,,,,,B,No,,,,,,,right,0,2.3834,Congruent,0,social,0,0,0,0,1,,,,,,,,,,
B,A,50,,,,,,,,,,,,,sasu98,001,2022-05-31_13h29.49.994,RALT_PLD,2020.2.10,Win32,60,A,,,,,,,A,Yes,,,,,,,right,0,3.6623,Congruent,1,social,1,0,1,0,1,,,,,,,,,,
B,A,24,,,,,,,,,,,,,sasu98,001,2022-05-31_13h29.49.994,RALT_PLD,2020.2.10,Win32,60,B,,,,,,,B,Yes,,,,,,,left,0,2.8836,Congruent,1,social,2,0,2,0,1,,,,,,,,,,
B,A,70,,,,,,,,,,,,,sasu98,001,2022-05-31_13h29.49.994,RALT_PLD,2020.2.10,Win32,60,A,,,,,,,A,Yes,,,,,,,right,0,1.8572,Congruent,1,social,3,0,3,0,1,,,,,,,,,,
,,,,,,,,,,,,,,,sasu98,001,2022-05-31_13h29.49.994,RALT_PLD,2020.2.10,Win32,60,,,,,,,,,,,,,,,,,,,,,,,,,,,5,0,5,0,1,,,,,
,,,,,,,,,,,,,,,sasu98,001,2022-05-31_13h29.49.994,RALT_PLD,2020.2.10,Win32,60,,,,,,,,,,,,,,,,,,,,,,,,,,,,,,,,0,0,0,0,1
B,A,61,,,,,,,,,,,,,sasu98,001,2022-05-31_13h29.49.994,RALT_PLD,2020.2.10,Win32,60,B,,,,,,,A,No,,,,,,,left,0,3.6867,Incongruent,1,nonsocial,0,0,0,0,1,,,,,,,,,,
B,A,19,,,,,,,,,,,,,sasu98,001,2022-05-31_13h29.49.994,RALT_PLD,2020.2.10,Win32,60,B,,,,,,,A,No,,,,,,,left,0,3.556,Congruent,0,nonsocial,1,0,1,0,1,,,,,,,,,,
B,A,51,,,,,,,,,,,,,sasu98,001,2022-05-31_13h29.49.994,RALT_PLD,2020.2.10,Win32,60,A,,,,,,,B,No,,,,,,,right,0,2.9641,Congruent,0,nonsocial,2,0,2,0,1,,,,,,,,,,
B,A,27,,,,,,,,,,,,,sasu98,001,2022-05-31_13h29.49.994,RALT_PLD,2020.2.10,Win32,60,B,,,,,,,B,Yes,,,,,,,left,0,4.9748,Congruent,1,nonsocial,3,0,3,0,1,,,,,,,,,,
,,,,,,,,,,,,,,,sasu98,001,2022-05-31_13h29.49.994,RALT_PLD,2020.2.10,Win32,60,,,,,,,,,,,,,,,,,,,,,,,,,,,0,0,0,0,1,,,,,
A,B,27,,,,,,,,,,,,,sasu98,001,2022-05-31_13h29.49.994,RALT_PLD,2020.2.10,Win32,60,B,,,,,,,B,Yes,,,,,,,right,0,2.3919,Congruent,1,nonsocial,0,0,0,0,1,,,,,,,,,,
A,B,19,,,,,,,,,,,,,sasu98,001,2022-05-31_13h29.49.994,RALT_PLD,2020.2.10,Win32,60,B,,,,,,,A,No,,,,,,,right,0,1.6478,Congruent,0,nonsocial,1,0,1,0,1,,,,,,,,,,
A,B,61,,,,,,,,,,,,,sasu98,001,2022-05-31_13h29.49.994,RALT_PLD,2020.2.10,Win32,60,A,,,,,,,A,Yes,,,,,,,left,0,1.9892,Incongruent,0,nonsocial,2,0,2,0,1,,,,,,,,,,
A,B,51,,,,,,,,,,,,,sasu98,001,2022-05-31_13h29.49.994,RALT_PLD,2020.2.10,Win32,60,B,,,,,,,B,Yes,,,,,,,right,0,2.5136,Congruent,1,nonsocial,3,0,3,0,1,,,,,,,,,,
,,,,,,,,,,,,,,,sasu98,001,2022-05-31_13h29.49.994,RALT_PLD,2020.2.10,Win32,60,,,,,,,,,,,,,,,,,,,,,,,,,,,1,0,1,0,1,,,,,
B,A,19,,,,,,,,,,,,,sasu98,001,2022-05-31_13h29.49.994,RALT_PLD,2020.2.10,Win32,60,A,,,,,,,A,Yes,,,,,,,right,0,2.4849,Congruent,1,nonsocial,0,0,0,0,1,,,,,,,,,,
B,A,61,,,,,,,,,,,,,sasu98,001,2022-05-31_13h29.49.994,RALT_PLD,2020.2.10,Win32,60,B,,,,,,,A,No,,,,,,,left,0,1.4253,Congruent,0,nonsocial,1,0,1,0,1,,,,,,,,,,
B,A,27,,,,,,,,,,,,,sasu98,001,2022-05-31_13h29.49.994,RALT_PLD,2020.2.10,Win32,60,A,,,,,,,B,No,,,,,,,right,0,3.1784,Congruent,0,nonsocial,2,0,2,0,1,,,,,,,,,,
B,A,51,,,,,,,,,,,,,sasu98,001,2022-05-31_13h29.49.994,RALT_PLD,2020.2.10,Win32,60,B,,,,,,,B,Yes,,,,,,,left,0,3.1484,Congruent,1,nonsocial,3,0,3,0,1,,,,,,,,,,
,,,,,,,,,,,,,,,sasu98,001,2022-05-31_13h29.49.994,RALT_PLD,2020.2.10,Win32,60,,,,,,,,,,,,,,,,,,,,,,,,,,,2,0,2,0,1,,,,,
B,A,51,,,,,,,,,,,,,sasu98,001,2022-05-31_13h29.49.994,RALT_PLD,2020.2.10,Win32,60,A,,,,,,,B,No,,,,,,,right,0,2.8419,Congruent,0,nonsocial,0,0,0,0,1,,,,,,,,,,
B,A,61,,,,,,,,,,,,,sasu98,001,2022-05-31_13h29.49.994,RALT_PLD,2020.2.10,Win32,60,A,,,,,,,A,Yes,,,,,,,right,0,2.6497,Congruent,1,nonsocial,1,0,1,0,1,,,,,,,,,,
B,A,27,,,,,,,,,,,,,sasu98,001,2022-05-31_13h29.49.994,RALT_PLD,2020.2.10,Win32,60,B,,,,,,,B,Yes,,,,,,,left,0,2.3519,Congruent,1,nonsocial,2,0,2,0,1,,,,,,,,,,
B,A,19,,,,,,,,,,,,,sasu98,001,2022-05-31_13h29.49.994,RALT_PLD,2020.2.10,Win32,60,A,,,,,,,A,Yes,,,,,,,right,0,2.9555,Congruent,1,nonsocial,3,0,3,0,1,,,,,,,,,,
,,,,,,,,,,,,,,,sasu98,001,2022-05-31_13h29.49.994,RALT_PLD,2020.2.10,Win32,60,,,,,,,,,,,,,,,,,,,,,,,,,,,3,0,3,0,1,,,,,
B,A,19,,,,,,,,,,,,,sasu98,001,2022-05-31_13h29.49.994,RALT_PLD,2020.2.10,Win32,60,A,,,,,,,A,Yes,,,,,,,right,0,3.6971,Congruent,1,nonsocial,0,0,0,0,1,,,,,,,,,,
B,A,27,,,,,,,,,,,,,sasu98,001,2022-05-31_13h29.49.994,RALT_PLD,2020.2.10,Win32,60,B,,,,,,,B,Yes,,,,,,,left,0,3.0608,Congruent,1,nonsocial,1,0,1,0,1,,,,,,,,,,
B,A,51,,,,,,,,,,,,,sasu98,001,2022-05-31_13h29.49.994,RALT_PLD,2020.2.10,Win32,60,B,,,,,,,B,Yes,,,,,,,left,0,3.8694,Congruent,1,nonsocial,2,0,2,0,1,,,,,,,,,,
B,A,61,,,,,,,,,,,,,sasu98,001,2022-05-31_13h29.49.994,RALT_PLD,2020.2.10,Win32,60,A,,,,,,,A,Yes,,,,,,,right,0,3.4534,Incongruent,0,nonsocial,3,0,3,0,1,,,,,,,,,,
,,,,,,,,,,,,,,,sasu98,001,2022-05-31_13h29.49.994,RALT_PLD,2020.2.10,Win32,60,,,,,,,,,,,,,,,,,,,,,,,,,,,4,0,4,0,1,,,,,
A,B,61,,,,,,,,,,,,,sasu98,001,2022-05-31_13h29.49.994,RALT_PLD,2020.2.10,Win32,60,B,,,,,,,A,No,,,,,,,right,0,2.4079,Congruent,0,nonsocial,0,0,0,0,1,,,,,,,,,,
A,B,51,,,,,,,,,,,,,sasu98,001,2022-05-31_13h29.49.994,RALT_PLD,2020.2.10,Win32,60,B,,,,,,,B,Yes,,,,,,,right,0,3.7751,Congruent,1,nonsocial,1,0,1,0,1,,,,,,,,,,
A,B,19,,,,,,,,,,,,,sasu98,001,2022-05-31_13h29.49.994,RALT_PLD,2020.2.10,Win32,60,A,,,,,,,A,Yes,,,,,,,left,0,3.8694,Congruent,1,nonsocial,2,0,2,0,1,,,,,,,,,,
A,B,27,,,,,,,,,,,,,sasu98,001,2022-05-31_13h29.49.994,RALT_PLD,2020.2.10,Win32,60,B,,,,,,,B,Yes,,,,,,,right,0,2.6271,Congruent,1,nonsocial,3,0,3,0,1,,,,,,,,,,
,,,,,,,,,,,,,,,sasu98,001,2022-05-31_13h29.49.994,RALT_PLD,2020.2.10,Win32,60,,,,,,,,,,,,,,,,,,,,,,,,,,,5,0,5,0,1,,,,,
,,,,,,,,,,,,,,,sasu98,001,2022-05-31_13h29.49.994,RALT_PLD,2020.2.10,Win32,60,,,,,,,,,,,,,,,,,,,,,,,,,,,,,,,,1,0,1,0,1
B,A,24,,,,,,,,,,,,,sasu98,001,2022-05-31_13h29.49.994,RALT_PLD,2020.2.10,Win32,60,B,,,,,,,B,Yes,,,,,,,left,0,3.1935,Congruent,1,social,0,0,0,0,1,,,,,,,,,,
B,A,50,,,,,,,,,,,,,sasu98,001,2022-05-31_13h29.49.994,RALT_PLD,2020.2.10,Win32,60,A,,,,,,,A,Yes,,,,,,,right,0,3.0938,Congruent,1,social,1,0,1,0,1,,,,,,,,,,
B,A,98,,,,,,,,,,,,,sasu98,001,2022-05-31_13h29.49.994,RALT_PLD,2020.2.10,Win32,60,B,,,,,,,B,Yes,,,,,,,left,0,3.0086,Congruent,1,social,2,0,2,0,1,,,,,,,,,,
B,A,70,,,,,,,,,,,,,sasu98,001,2022-05-31_13h29.49.994,RALT_PLD,2020.2.10,Win32,60,B,,,,,,,A,No,,,,,,,left,0,5.0842,Congruent,0,social,3,0,3,0,1,,,,,,,,,,
,,,,,,,,,,,,,,,sasu98,001,2022-05-31_13h29.49.994,RALT_PLD,2020.2.10,Win32,60,,,,,,,,,,,,,,,,,,,,,,,,,,,0,0,0,0,1,,,,,
B,A,24,,,,,,,,,,,,,sasu98,001,2022-05-31_13h29.49.994,RALT_PLD,2020.2.10,Win32,60,A,,,,,,,B,No,,,,,,,right,0,1.723,Congruent,0,social,0,0,0,0,1,,,,,,,,,,
B,A,98,,,,,,,,,,,,,sasu98,001,2022-05-31_13h29.49.994,RALT_PLD,2020.2.10,Win32,60,B,,,,,,,B,Yes,,,,,,,left,0,1.4531,Incongruent,0,social,1,0,1,0,1,,,,,,,,,,
B,A,50,,,,,,,,,,,,,sasu98,001,2022-05-31_13h29.49.994,RALT_PLD,2020.2.10,Win32,60,A,,,,,,,A,Yes,,,,,,,right,0,3.5973,Congruent,1,social,2,0,2,0,1,,,,,,,,,,
B,A,70,,,,,,,,,,,,,sasu98,001,2022-05-31_13h29.49.994,RALT_PLD,2020.2.10,Win32,60,B,,,,,,,A,No,,,,,,,left,0,2.748,Congruent,0,social,3,0,3,0,1,,,,,,,,,,
,,,,,,,,,,,,,,,sasu98,001,2022-05-31_13h29.49.994,RALT_PLD,2020.2.10,Win32,60,,,,,,,,,,,,,,,,,,,,,,,,,,,1,0,1,0,1,,,,,
B,A,70,,,,,,,,,,,,,sasu98,001,2022-05-31_13h29.49.994,RALT_PLD,2020.2.10,Win32,60,A,,,,,,,A,Yes,,,,,,,right,0,1.8326,Congruent,1,social,0,0,0,0,1,,,,,,,,,,
B,A,24,,,,,,,,,,,,,sasu98,001,2022-05-31_13h29.49.994,RALT_PLD,2020.2.10,Win32,60,A,,,,,,,B,No,,,,,,,right,0,2.4493,Congruent,0,social,1,0,1,0,1,,,,,,,,,,
B,A,98,,,,,,,,,,,,,sasu98,001,2022-05-31_13h29.49.994,RALT_PLD,2020.2.10,Win32,60,B,,,,,,,B,Yes,,,,,,,left,0,0.3876,Congruent,1,social,2,0,2,0,1,,,,,,,,,,
B,A,50,,,,,,,,,,,,,sasu98,001,2022-05-31_13h29.49.994,RALT_PLD,2020.2.10,Win32,60,A,,,,,,,A,Yes,,,,,,,right,0,1.088,Congruent,1,social,3,0,3,0,1,,,,,,,,,,
,,,,,,,,,,,,,,,sasu98,001,2022-05-31_13h29.49.994,RALT_PLD,2020.2.10,Win32,60,,,,,,,,,,,,,,,,,,,,,,,,,,,2,0,2,0,1,,,,,
A,B,98,,,,,,,,,,,,,sasu98,001,2022-05-31_13h29.49.994,RALT_PLD,2020.2.10,Win32,60,A,,,,,,,B,No,,,,,,,left,0,1.188,Congruent,0,social,0,0,0,0,1,,,,,,,,,,
A,B,24,,,,,,,,,,,,,sasu98,001,2022-05-31_13h29.49.994,RALT_PLD,2020.2.10,Win32,60,A,,,,,,,B,No,,,,,,,left,0,2.6108,Congruent,0,social,1,0,1,0,1,,,,,,,,,,
A,B,70,,,,,,,,,,,,,sasu98,001,2022-05-31_13h29.49.994,RALT_PLD,2020.2.10,Win32,60,B,,,,,,,A,No,,,,,,,right,0,0.3531,Congruent,0,social,2,0,2,0,1,,,,,,,,,,
A,B,50,,,,,,,,,,,,,sasu98,001,2022-05-31_13h29.49.994,RALT_PLD,2020.2.10,Win32,60,A,,,,,,,A,Yes,,,,,,,left,0,1.866,Congruent,1,social,3,0,3,0,1,,,,,,,,,,
,,,,,,,,,,,,,,,sasu98,001,2022-05-31_13h29.49.994,RALT_PLD,2020.2.10,Win32,60,,,,,,,,,,,,,,,,,,,,,,,,,,,3,0,3,0,1,,,,,
A,B,98,,,,,,,,,,,,,sasu98,001,2022-05-31_13h29.49.994,RALT_PLD,2020.2.10,Win32,60,B,,,,,,,B,Yes,,,,,,,right,0,1.7559,Congruent,1,social,0,0,0,0,1,,,,,,,,,,
A,B,70,,,,,,,,,,,,,sasu98,001,2022-05-31_13h29.49.994,RALT_PLD,2020.2.10,Win32,60,A,,,,,,,A,Yes,,,,,,,left,0,1.9301,Congruent,1,social,1,0,1,0,1,,,,,,,,,,
A,B,24,,,,,,,,,,,,,sasu98,001,2022-05-31_13h29.49.994,RALT_PLD,2020.2.10,Win32,60,B,,,,,,,B,Yes,,,,,,,right,0,1.4794,Congruent,1,social,2,0,2,0,1,,,,,,,,,,
A,B,50,,,,,,,,,,,,,sasu98,001,2022-05-31_13h29.49.994,RALT_PLD,2020.2.10,Win32,60,A,,,,,,,A,Yes,,,,,,,left,0,0.8303,Congruent,1,social,3,0,3,0,1,,,,,,,,,,
,,,,,,,,,,,,,,,sasu98,001,2022-05-31_13h29.49.994,RALT_PLD,2020.2.10,Win32,60,,,,,,,,,,,,,,,,,,,,,,,,,,,4,0,4,0,1,,,,,
A,B,50,,,,,,,,,,,,,sasu98,001,2022-05-31_13h29.49.994,RALT_PLD,2020.2.10,Win32,60,A,,,,,,,A,Yes,,,,,,,left,0,3.4831,Congruent,1,social,0,0,0,0,1,,,,,,,,,,
A,B,98,,,,,,,,,,,,,sasu98,001,2022-05-31_13h29.49.994,RALT_PLD,2020.2.10,Win32,60,B,,,,,,,B,Yes,,,,,,,right,0,1.1261,Congruent,1,social,1,0,1,0,1,,,,,,,,,,
A,B,24,,,,,,,,,,,,,sasu98,001,2022-05-31_13h29.49.994,RALT_PLD,2020.2.10,Win32,60,A,,,,,,,B,No,,,,,,,left,0,2.7301,Congruent,0,social,2,0,2,0,1,,,,,,,,,,
A,B,70,,,,,,,,,,,,,sasu98,001,2022-05-31_13h29.49.994,RALT_PLD,2020.2.10,Win32,60,B,,,,,,,A,No,,,,,,,right,0,3.395,Congruent,0,social,3,0,3,0,1,,,,,,,,,,
,,,,,,,,,,,,,,,sasu98,001,2022-05-31_13h29.49.994,RALT_PLD,2020.2.10,Win32,60,,,,,,,,,,,,,,,,,,,,,,,,,,,5,0,5,0,1,,,,,
,,,,,,,,,,,,,,,sasu98,001,2022-05-31_13h29.49.994,RALT_PLD,2020.2.10,Win32,60,,,,,,,,,,,,,,,,,,,,,,,,,,,,,,,,2,0,2,0,1
A,B,61,,,,,,,,,,,,,sasu98,001,2022-05-31_13h29.49.994,RALT_PLD,2020.2.10,Win32,60,A,,,,,,,A,Yes,,,,,,,left,0,1.6365,Congruent,1,nonsocial,0,0,0,0,1,,,,,,,,,,
A,B,27,,,,,,,,,,,,,sasu98,001,2022-05-31_13h29.49.994,RALT_PLD,2020.2.10,Win32,60,B,,,,,,,B,Yes,,,,,,,right,0,2.1258,Incongruent,0,nonsocial,1,0,1,0,1,,,,,,,,,,
A,B,19,,,,,,,,,,,,,sasu98,001,2022-05-31_13h29.49.994,RALT_PLD,2020.2.10,Win32,60,A,,,,,,,A,Yes,,,,,,,left,0,1.4172,Congruent,1,nonsocial,2,0,2,0,1,,,,,,,,,,
A,B,51,,,,,,,,,,,,,sasu98,001,2022-05-31_13h29.49.994,RALT_PLD,2020.2.10,Win32,60,B,,,,,,,B,Yes,,,,,,,right,0,2.1426,Incongruent,0,nonsocial,3,0,3,0,1,,,,,,,,,,
,,,,,,,,,,,,,,,sasu98,001,2022-05-31_13h29.49.994,RALT_PLD,2020.2.10,Win32,60,,,,,,,,,,,,,,,,,,,,,,,,,,,0,0,0,0,1,,,,,
A,B,61,,,,,,,,,,,,,sasu98,001,2022-05-31_13h29.49.994,RALT_PLD,2020.2.10,Win32,60,A,,,,,,,A,Yes,,,,,,,left,0,3.9406,Congruent,1,nonsocial,0,0,0,0,1,,,,,,,,,,
A,B,51,,,,,,,,,,,,,sasu98,001,2022-05-31_13h29.49.994,RALT_PLD,2020.2.10,Win32,60,A,,,,,,,B,No,,,,,,,left,0,2.3111,Congruent,0,nonsocial,1,0,1,0,1,,,,,,,,,,
A,B,27,,,,,,,,,,,,,sasu98,001,2022-05-31_13h29.49.994,RALT_PLD,2020.2.10,Win32,60,B,,,,,,,B,Yes,,,,,,,right,0,3.0146,Congruent,1,nonsocial,2,0,2,0,1,,,,,,,,,,
A,B,19,,,,,,,,,,,,,sasu98,001,2022-05-31_13h29.49.994,RALT_PLD,2020.2.10,Win32,60,B,,,,,,,A,No,,,,,,,right,0,2.376,Incongruent,1,nonsocial,3,0,3,0,1,,,,,,,,,,
,,,,,,,,,,,,,,,sasu98,001,2022-05-31_13h29.49.994,RALT_PLD,2020.2.10,Win32,60,,,,,,,,,,,,,,,,,,,,,,,,,,,1,0,1,0,1,,,,,
A,B,61,,,,,,,,,,,,,sasu98,001,2022-05-31_13h29.49.994,RALT_PLD,2020.2.10,Win32,60,A,,,,,,,A,Yes,,,,,,,left,0,3.0985,Congruent,1,nonsocial,0,0,0,0,1,,,,,,,,,,
A,B,27,,,,,,,,,,,,,sasu98,001,2022-05-31_13h29.49.994,RALT_PLD,2020.2.10,Win32,60,B,,,,,,,B,Yes,,,,,,,right,0,1.7978,Congruent,1,nonsocial,1,0,1,0,1,,,,,,,,,,
A,B,51,,,,,,,,,,,,,sasu98,001,2022-05-31_13h29.49.994,RALT_PLD,2020.2.10,Win32,60,A,,,,,,,B,No,,,,,,,left,0,4.8103,Congruent,0,nonsocial,2,0,2,0,1,,,,,,,,,,
A,B,19,,,,,,,,,,,,,sasu98,001,2022-05-31_13h29.49.994,RALT_PLD,2020.2.10,Win32,60,B,,,,,,,A,No,,,,,,,right,0,1.1718,Congruent,0,nonsocial,3,0,3,0,1,,,,,,,,,,
,,,,,,,,,,,,,,,sasu98,001,2022-05-31_13h29.49.994,RALT_PLD,2020.2.10,Win32,60,,,,,,,,,,,,,,,,,,,,,,,,,,,2,0,2,0,1,,,,,
B,A,51,,,,,,,,,,,,,sasu98,001,2022-05-31_13h29.49.994,RALT_PLD,2020.2.10,Win32,60,B,,,,,,,B,Yes,,,,,,,left,0,2.4646,Congruent,1,nonsocial,0,0,0,0,1,,,,,,,,,,
B,A,19,,,,,,,,,,,,,sasu98,001,2022-05-31_13h29.49.994,RALT_PLD,2020.2.10,Win32,60,B,,,,,,,A,No,,,,,,,left,0,1.2568,Congruent,0,nonsocial,1,0,1,0,1,,,,,,,,,,
B,A,61,,,,,,,,,,,,,sasu98,001,2022-05-31_13h29.49.994,RALT_PLD,2020.2.10,Win32,60,A,,,,,,,A,Yes,,,,,,,right,0,1.8164,Congruent,1,nonsocial,2,0,2,0,1,,,,,,,,,,
B,A,27,,,,,,,,,,,,,sasu98,001,2022-05-31_13h29.49.994,RALT_PLD,2020.2.10,Win32,60,B,,,,,,,B,Yes,,,,,,,left,0,3.6892,Incongruent,0,nonsocial,3,0,3,0,1,,,,,,,,,,
,,,,,,,,,,,,,,,sasu98,001,2022-05-31_13h29.49.994,RALT_PLD,2020.2.10,Win32,60,,,,,,,,,,,,,,,,,,,,,,,,,,,3,0,3,0,1,,,,,
A,B,51,,,,,,,,,,,,,sasu98,001,2022-05-31_13h29.49.994,RALT_PLD,2020.2.10,Win32,60,B,,,,,,,B,Yes,,,,,,,right,0,2.1943,Incongruent,0,nonsocial,0,0,0,0,1,,,,,,,,,,
A,B,27,,,,,,,,,,,,,sasu98,001,2022-05-31_13h29.49.994,RALT_PLD,2020.2.10,Win32,60,B,,,,,,,B,Yes,,,,,,,right,0,4.4482,Congruent,1,nonsocial,1,0,1,0,1,,,,,,,,,,
A,B,19,,,,,,,,,,,,,sasu98,001,2022-05-31_13h29.49.994,RALT_PLD,2020.2.10,Win32,60,A,,,,,,,A,Yes,,,,,,,left,0,0.7188,Congruent,1,nonsocial,2,0,2,0,1,,,,,,,,,,
A,B,61,,,,,,,,,,,,,sasu98,001,2022-05-31_13h29.49.994,RALT_PLD,2020.2.10,Win32,60,A,,,,,,,A,Yes,,,,,,,left,0,2.2205,Congruent,1,nonsocial,3,0,3,0,1,,,,,,,,,,
,,,,,,,,,,,,,,,sasu98,001,2022-05-31_13h29.49.994,RALT_PLD,2020.2.10,Win32,60,,,,,,,,,,,,,,,,,,,,,,,,,,,4,0,4,0,1,,,,,
A,B,27,,,,,,,,,,,,,sasu98,001,2022-05-31_13h29.49.994,RALT_PLD,2020.2.10,Win32,60,A,,,,,,,B,No,,,,,,,left,0,4.5649,Congruent,0,nonsocial,0,0,0,0,1,,,,,,,,,,
A,B,51,,,,,,,,,,,,,sasu98,001,2022-05-31_13h29.49.994,RALT_PLD,2020.2.10,Win32,60,A,,,,,,,B,No,,,,,,,left,0,3.5334,Congruent,0,nonsocial,1,0,1,0,1,,,,,,,,,,
A,B,19,,,,,,,,,,,,,sasu98,001,2022-05-31_13h29.49.994,RALT_PLD,2020.2.10,Win32,60,A,,,,,,,A,Yes,,,,,,,left,0,2.8829,Congruent,1,nonsocial,2,0,2,0,1,,,,,,,,,,
A,B,61,,,,,,,,,,,,,sasu98,001,2022-05-31_13h29.49.994,RALT_PLD,2020.2.10,Win32,60,A,,,,,,,A,Yes,,,,,,,left,0,2.0424,Congruent,1,nonsocial,3,0,3,0,1,,,,,,,,,,
,,,,,,,,,,,,,,,sasu98,001,2022-05-31_13h29.49.994,RALT_PLD,2020.2.10,Win32,60,,,,,,,,,,,,,,,,,,,,,,,,,,,5,0,5,0,1,,,,,
,,,,,,,,,,,,,,,sasu98,001,2022-05-31_13h29.49.994,RALT_PLD,2020.2.10,Win32,60,,,,,,,,,,,,,,,,,,,,,,,,,,,,,,,,3,0,3,0,1
