left,right,stim,ParticipantAnswer,response_training.keys,response_training.corr,response_training.rt,training_social.thisRepN,training_social.thisTrialN,training_social.thisN,training_social.thisIndex,training_social.ran,Stim,filename_neutral,filename_feedback_happy,filename_feedback_angry,CorrCatTrain,participant,session,date,expName,psychopyVersion,OS,frameRate,training_nonsocial.thisRepN,training_nonsocial.thisTrialN,training_nonsocial.thisN,training_nonsocial.thisIndex,training_nonsocial.ran,CorrCat,CorrectAns,prob_fb.thisRepN,prob_fb.thisTrialN,prob_fb.thisN,prob_fb.thisIndex,prob_fb.ran,CorrCatProb,response_training_2.keys,response_training_2.corr,response_training_2.rt,Congr/Incongr,Reward,BlockType,trials.thisRepN,trials.thisTrialN,trials.thisN,trials.thisIndex,trials.ran,cycles.thisRepN,cycles.thisTrialN,cycles.thisN,cycles.thisIndex,cycles.ran,blocks.thisRepN,blocks.thisTrialN,blocks.thisN,blocks.thisIndex,blocks.ran
A,B,38,B,right,0,3.4426,0,0,0,1,1,38,Stimuli/neutral/Still.jpg,Stimuli/social/happy/M02-Happy Man.mp4,Stimuli/social/angry/M06-Angry Man.mp4,A,sisp99,001,2022-04-20_13h21.16.593,RALT_PLD,2020.2.10,Win32,60,,,,,,,,,,,,,,,,,,,,,,,,,,,,,,,,,,
A,B,38,A,left,0,2.3712,0,1,1,3,1,38,Stimuli/neutral/Still.jpg,Stimuli/social/happy/M02-Happy Man.mp4,Stimuli/social/angry/M06-Angry Man.mp4,B,sisp99,001,2022-04-20_13h21.16.593,RALT_PLD,2020.2.10,Win32,60,,,,,,,,,,,,,,,,,,,,,,,,,,,,,,,,,,
A,B,91,A,left,0,3.0928,0,2,2,2,1,91,Stimuli/neutral/Still.jpg,Stimuli/social/happy/F01-Happy Women.mp4,Stimuli/social/angry/F04-Angry Women.mp4,B,sisp99,001,2022-04-20_13h21.16.593,RALT_PLD,2020.2.10,Win32,60,,,,,,,,,,,,,,,,,,,,,,,,,,,,,,,,,,
A,B,99,A,left,0,2.645,0,3,3,0,1,99,Stimuli/neutral/Still.jpg,Stimuli/social/happy/F01-Happy Women.mp4,Stimuli/social/angry/F04-Angry Women.mp4,A,sisp99,001,2022-04-20_13h21.16.593,RALT_PLD,2020.2.10,Win32,60,,,,,,,,,,,,,,,,,,,,,,,,,,,,,,,,,,
A,B,53,B,right,0,3.3341,,,,,,53,Stimuli/neutral/Still.jpg,Stimuli/nonsocial/Right Tick.mp4,Stimuli/nonsocial/Wrong Tick.mp4,A,sisp99,001,2022-04-20_13h21.16.593,RALT_PLD,2020.2.10,Win32,60,0,0,0,1,1,,,,,,,,,,,,,,,,,,,,,,,,,,,,,
A,B,43,A,left,0,1.8512,,,,,,43,Stimuli/neutral/Still.jpg,Stimuli/nonsocial/Right Tick.mp4,Stimuli/nonsocial/Wrong Tick.mp4,A,sisp99,001,2022-04-20_13h21.16.593,RALT_PLD,2020.2.10,Win32,60,0,1,1,2,1,,,,,,,,,,,,,,,,,,,,,,,,,,,,,
A,B,98,A,left,0,1.0733,,,,,,98,Stimuli/neutral/Still.jpg,Stimuli/nonsocial/Right Tick.mp4,Stimuli/nonsocial/Wrong Tick.mp4,B,sisp99,001,2022-04-20_13h21.16.593,RALT_PLD,2020.2.10,Win32,60,0,2,2,0,1,,,,,,,,,,,,,,,,,,,,,,,,,,,,,
A,B,39,B,right,0,0.7451,,,,,,39,Stimuli/neutral/Still.jpg,Stimuli/nonsocial/Right Tick.mp4,Stimuli/nonsocial/Wrong Tick.mp4,B,sisp99,001,2022-04-20_13h21.16.593,RALT_PLD,2020.2.10,Win32,60,0,3,3,3,1,,,,,,,,,,,,,,,,,,,,,,,,,,,,,
A,B,99,A,left,0,1.1997,,,,,,99,Stimuli/neutral/Still.jpg,Stimuli/social/happy/F01-Happy Women.mp4,Stimuli/social/angry/F04-Angry Women.mp4,,sisp99,001,2022-04-20_13h21.16.593,RALT_PLD,2020.2.10,Win32,60,,,,,,"[[""B"",""A"",""B"",""A""],[""B"",""A"",""B"",""A""]]",Yes,0,0,0,0,1,A,,,,,,,,,,,,,,,,,,,,,
A,B,38,A,left,0,1.1586,,,,,,38,Stimuli/neutral/Still.jpg,Stimuli/social/happy/M02-Happy Man.mp4,Stimuli/social/angry/M06-Angry Man.mp4,,sisp99,001,2022-04-20_13h21.16.593,RALT_PLD,2020.2.10,Win32,60,,,,,,"[[""B"",""A"",""B"",""A""],[""B"",""A"",""B"",""A""]]",No,0,1,1,3,1,B,,,,,,,,,,,,,,,,,,,,,
A,B,38,B,right,0,1.1213,,,,,,38,Stimuli/neutral/Still.jpg,Stimuli/social/happy/M02-Happy Man.mp4,Stimuli/social/angry/M06-Angry Man.mp4,,sisp99,001,2022-04-20_13h21.16.593,RALT_PLD,2020.2.10,Win32,60,,,,,,"[[""B"",""A"",""B"",""A""],[""B"",""A"",""B"",""A""]]",No,0,2,2,1,1,A,,,,,,,,,,,,,,,,,,,,,
A,B,91,B,right,0,1.7896,,,,,,91,Stimuli/neutral/Still.jpg,Stimuli/social/happy/F01-Happy Women.mp4,Stimuli/social/angry/F04-Angry Women.mp4,,sisp99,001,2022-04-20_13h21.16.593,RALT_PLD,2020.2.10,Win32,60,,,,,,"[[""B"",""A"",""B"",""A""],[""B"",""A"",""B"",""A""]]",Yes,0,3,3,2,1,B,,,,,,,,,,,,,,,,,,,,,
B,A,88,B,,,,,,,,,,,,,,sisp99,001,2022-04-20_13h21.16.593,RALT_PLD,2020.2.10,Win32,60,,,,,,A,No,,,,,,,left,0,2.7607,Incongruent,1,social,0,0,0,0,1,,,,,,,,,,
B,A,78,A,,,,,,,,,,,,,,sisp99,001,2022-04-20_13h21.16.593,RALT_PLD,2020.2.10,Win32,60,,,,,,B,No,,,,,,,right,0,1.2337,Incongruent,1,social,1,0,1,0,1,,,,,,,,,,
B,A,16,B,,,,,,,,,,,,,,sisp99,001,2022-04-20_13h21.16.593,RALT_PLD,2020.2.10,Win32,60,,,,,,B,Yes,,,,,,,left,0,1.1808,Congruent,1,social,2,0,2,0,1,,,,,,,,,,
B,A,94,A,,,,,,,,,,,,,,sisp99,001,2022-04-20_13h21.16.593,RALT_PLD,2020.2.10,Win32,60,,,,,,A,Yes,,,,,,,right,0,4.0303,Congruent,1,social,3,0,3,0,1,,,,,,,,,,
,,,,,,,,,,,,,,,,,sisp99,001,2022-04-20_13h21.16.593,RALT_PLD,2020.2.10,Win32,60,,,,,,,,,,,,,,,,,,,,,,,,,0,0,0,0,1,,,,,
B,A,94,,,,,,,,,,,,,,,sisp99,001,2022-04-20_13h21.16.593,RALT_PLD,2020.2.10,Win32,60,,,,,,A,No,,,,,,,,0,,Congruent,0,social,0,0,0,0,1,,,,,,,,,,
B,A,78,A,,,,,,,,,,,,,,sisp99,001,2022-04-20_13h21.16.593,RALT_PLD,2020.2.10,Win32,60,,,,,,B,No,,,,,,,right,0,1.7879,Congruent,0,social,1,0,1,0,1,,,,,,,,,,
B,A,88,B,,,,,,,,,,,,,,sisp99,001,2022-04-20_13h21.16.593,RALT_PLD,2020.2.10,Win32,60,,,,,,A,No,,,,,,,left,0,1.0569,Congruent,0,social,2,0,2,0,1,,,,,,,,,,
B,A,16,A,,,,,,,,,,,,,,sisp99,001,2022-04-20_13h21.16.593,RALT_PLD,2020.2.10,Win32,60,,,,,,B,No,,,,,,,right,0,0.8526,Congruent,0,social,3,0,3,0,1,,,,,,,,,,
,,,,,,,,,,,,,,,,,sisp99,001,2022-04-20_13h21.16.593,RALT_PLD,2020.2.10,Win32,60,,,,,,,,,,,,,,,,,,,,,,,,,1,0,1,0,1,,,,,
A,B,16,A,,,,,,,,,,,,,,sisp99,001,2022-04-20_13h21.16.593,RALT_PLD,2020.2.10,Win32,60,,,,,,B,No,,,,,,,left,0,1.2128,Congruent,0,social,0,0,0,0,1,,,,,,,,,,
A,B,94,B,,,,,,,,,,,,,,sisp99,001,2022-04-20_13h21.16.593,RALT_PLD,2020.2.10,Win32,60,,,,,,A,No,,,,,,,right,0,0.7918,Congruent,0,social,1,0,1,0,1,,,,,,,,,,
A,B,78,A,,,,,,,,,,,,,,sisp99,001,2022-04-20_13h21.16.593,RALT_PLD,2020.2.10,Win32,60,,,,,,B,No,,,,,,,left,0,1.4668,Congruent,0,social,2,0,2,0,1,,,,,,,,,,
A,B,88,B,,,,,,,,,,,,,,sisp99,001,2022-04-20_13h21.16.593,RALT_PLD,2020.2.10,Win32,60,,,,,,A,No,,,,,,,right,0,2.078,Congruent,0,social,3,0,3,0,1,,,,,,,,,,
,,,,,,,,,,,,,,,,,sisp99,001,2022-04-20_13h21.16.593,RALT_PLD,2020.2.10,Win32,60,,,,,,,,,,,,,,,,,,,,,,,,,2,0,2,0,1,,,,,
B,A,94,A,,,,,,,,,,,,,,sisp99,001,2022-04-20_13h21.16.593,RALT_PLD,2020.2.10,Win32,60,,,,,,A,Yes,,,,,,,right,0,1.8463,Congruent,1,social,0,0,0,0,1,,,,,,,,,,
B,A,78,B,,,,,,,,,,,,,,sisp99,001,2022-04-20_13h21.16.593,RALT_PLD,2020.2.10,Win32,60,,,,,,B,Yes,,,,,,,left,0,2.0088,Congruent,1,social,1,0,1,0,1,,,,,,,,,,
B,A,16,B,,,,,,,,,,,,,,sisp99,001,2022-04-20_13h21.16.593,RALT_PLD,2020.2.10,Win32,60,,,,,,B,Yes,,,,,,,left,0,1.6626,Congruent,1,social,2,0,2,0,1,,,,,,,,,,
B,A,88,A,,,,,,,,,,,,,,sisp99,001,2022-04-20_13h21.16.593,RALT_PLD,2020.2.10,Win32,60,,,,,,A,Yes,,,,,,,right,0,1.1412,Congruent,1,social,3,0,3,0,1,,,,,,,,,,
,,,,,,,,,,,,,,,,,sisp99,001,2022-04-20_13h21.16.593,RALT_PLD,2020.2.10,Win32,60,,,,,,,,,,,,,,,,,,,,,,,,,3,0,3,0,1,,,,,
B,A,78,B,,,,,,,,,,,,,,sisp99,001,2022-04-20_13h21.16.593,RALT_PLD,2020.2.10,Win32,60,,,,,,B,Yes,,,,,,,left,0,0.9824,Congruent,1,social,0,0,0,0,1,,,,,,,,,,
B,A,16,A,,,,,,,,,,,,,,sisp99,001,2022-04-20_13h21.16.593,RALT_PLD,2020.2.10,Win32,60,,,,,,B,No,,,,,,,right,0,0.9612,Congruent,0,social,1,0,1,0,1,,,,,,,,,,
B,A,94,B,,,,,,,,,,,,,,sisp99,001,2022-04-20_13h21.16.593,RALT_PLD,2020.2.10,Win32,60,,,,,,A,No,,,,,,,left,0,2.2519,Congruent,0,social,2,0,2,0,1,,,,,,,,,,
B,A,88,A,,,,,,,,,,,,,,sisp99,001,2022-04-20_13h21.16.593,RALT_PLD,2020.2.10,Win32,60,,,,,,A,Yes,,,,,,,right,0,1.3323,Congruent,1,social,3,0,3,0,1,,,,,,,,,,
,,,,,,,,,,,,,,,,,sisp99,001,2022-04-20_13h21.16.593,RALT_PLD,2020.2.10,Win32,60,,,,,,,,,,,,,,,,,,,,,,,,,4,0,4,0,1,,,,,
A,B,88,A,,,,,,,,,,,,,,sisp99,001,2022-04-20_13h21.16.593,RALT_PLD,2020.2.10,Win32,60,,,,,,A,Yes,,,,,,,left,0,2.9045,Incongruent,0,social,0,0,0,0,1,,,,,,,,,,
A,B,16,B,,,,,,,,,,,,,,sisp99,001,2022-04-20_13h21.16.593,RALT_PLD,2020.2.10,Win32,60,,,,,,B,Yes,,,,,,,right,0,0.7964,Congruent,1,social,1,0,1,0,1,,,,,,,,,,
A,B,94,A,,,,,,,,,,,,,,sisp99,001,2022-04-20_13h21.16.593,RALT_PLD,2020.2.10,Win32,60,,,,,,A,Yes,,,,,,,left,0,1.9622,Congruent,1,social,2,0,2,0,1,,,,,,,,,,
A,B,78,B,,,,,,,,,,,,,,sisp99,001,2022-04-20_13h21.16.593,RALT_PLD,2020.2.10,Win32,60,,,,,,B,Yes,,,,,,,right,0,0.6857,Incongruent,0,social,3,0,3,0,1,,,,,,,,,,
,,,,,,,,,,,,,,,,,sisp99,001,2022-04-20_13h21.16.593,RALT_PLD,2020.2.10,Win32,60,,,,,,,,,,,,,,,,,,,,,,,,,5,0,5,0,1,,,,,
,,,,,,,,,,,,,,,,,sisp99,001,2022-04-20_13h21.16.593,RALT_PLD,2020.2.10,Win32,60,,,,,,,,,,,,,,,,,,,,,,,,,,,,,,0,0,0,0,1
B,A,47,A,,,,,,,,,,,,,,sisp99,001,2022-04-20_13h21.16.593,RALT_PLD,2020.2.10,Win32,60,,,,,,B,No,,,,,,,right,0,1.7921,Incongruent,1,nonsocial,0,0,0,0,1,,,,,,,,,,
B,A,71,B,,,,,,,,,,,,,,sisp99,001,2022-04-20_13h21.16.593,RALT_PLD,2020.2.10,Win32,60,,,,,,A,No,,,,,,,left,0,0.87,Congruent,0,nonsocial,1,0,1,0,1,,,,,,,,,,
B,A,89,B,,,,,,,,,,,,,,sisp99,001,2022-04-20_13h21.16.593,RALT_PLD,2020.2.10,Win32,60,,,,,,B,Yes,,,,,,,left,0,0.8264,Congruent,1,nonsocial,2,0,2,0,1,,,,,,,,,,
B,A,63,A,,,,,,,,,,,,,,sisp99,001,2022-04-20_13h21.16.593,RALT_PLD,2020.2.10,Win32,60,,,,,,A,Yes,,,,,,,right,0,1.4574,Congruent,1,nonsocial,3,0,3,0,1,,,,,,,,,,
,,,,,,,,,,,,,,,,,sisp99,001,2022-04-20_13h21.16.593,RALT_PLD,2020.2.10,Win32,60,,,,,,,,,,,,,,,,,,,,,,,,,0,0,0,0,1,,,,,
A,B,71,A,,,,,,,,,,,,,,sisp99,001,2022-04-20_13h21.16.593,RALT_PLD,2020.2.10,Win32,60,,,,,,A,Yes,,,,,,,left,0,1.1275,Congruent,1,nonsocial,0,0,0,0,1,,,,,,,,,,
A,B,89,B,,,,,,,,,,,,,,sisp99,001,2022-04-20_13h21.16.593,RALT_PLD,2020.2.10,Win32,60,,,,,,B,Yes,,,,,,,right,0,1.2236,Congruent,1,nonsocial,1,0,1,0,1,,,,,,,,,,
A,B,63,A,,,,,,,,,,,,,,sisp99,001,2022-04-20_13h21.16.593,RALT_PLD,2020.2.10,Win32,60,,,,,,A,Yes,,,,,,,left,0,2.1495,Congruent,1,nonsocial,2,0,2,0,1,,,,,,,,,,
A,B,47,A,,,,,,,,,,,,,,sisp99,001,2022-04-20_13h21.16.593,RALT_PLD,2020.2.10,Win32,60,,,,,,B,No,,,,,,,left,0,1.8647,Incongruent,1,nonsocial,3,0,3,0,1,,,,,,,,,,
,,,,,,,,,,,,,,,,,sisp99,001,2022-04-20_13h21.16.593,RALT_PLD,2020.2.10,Win32,60,,,,,,,,,,,,,,,,,,,,,,,,,1,0,1,0,1,,,,,
A,B,89,B,,,,,,,,,,,,,,sisp99,001,2022-04-20_13h21.16.593,RALT_PLD,2020.2.10,Win32,60,,,,,,B,Yes,,,,,,,right,0,1.2461,Congruent,1,nonsocial,0,0,0,0,1,,,,,,,,,,
A,B,71,A,,,,,,,,,,,,,,sisp99,001,2022-04-20_13h21.16.593,RALT_PLD,2020.2.10,Win32,60,,,,,,A,Yes,,,,,,,left,0,0.7548,Congruent,1,nonsocial,1,0,1,0,1,,,,,,,,,,
A,B,63,B,,,,,,,,,,,,,,sisp99,001,2022-04-20_13h21.16.593,RALT_PLD,2020.2.10,Win32,60,,,,,,A,No,,,,,,,right,0,1.9254,Incongruent,1,nonsocial,2,0,2,0,1,,,,,,,,,,
A,B,47,B,,,,,,,,,,,,,,sisp99,001,2022-04-20_13h21.16.593,RALT_PLD,2020.2.10,Win32,60,,,,,,B,Yes,,,,,,,right,0,0.5219,Congruent,1,nonsocial,3,0,3,0,1,,,,,,,,,,
,,,,,,,,,,,,,,,,,sisp99,001,2022-04-20_13h21.16.593,RALT_PLD,2020.2.10,Win32,60,,,,,,,,,,,,,,,,,,,,,,,,,2,0,2,0,1,,,,,
A,B,71,A,,,,,,,,,,,,,,sisp99,001,2022-04-20_13h21.16.593,RALT_PLD,2020.2.10,Win32,60,,,,,,A,Yes,,,,,,,left,0,1.8722,Congruent,1,nonsocial,0,0,0,0,1,,,,,,,,,,
A,B,47,B,,,,,,,,,,,,,,sisp99,001,2022-04-20_13h21.16.593,RALT_PLD,2020.2.10,Win32,60,,,,,,B,Yes,,,,,,,right,0,1.5948,Incongruent,0,nonsocial,1,0,1,0,1,,,,,,,,,,
A,B,63,B,,,,,,,,,,,,,,sisp99,001,2022-04-20_13h21.16.593,RALT_PLD,2020.2.10,Win32,60,,,,,,A,No,,,,,,,right,0,0.8872,Congruent,0,nonsocial,2,0,2,0,1,,,,,,,,,,
A,B,89,B,,,,,,,,,,,,,,sisp99,001,2022-04-20_13h21.16.593,RALT_PLD,2020.2.10,Win32,60,,,,,,B,Yes,,,,,,,right,0,0.6831,Congruent,1,nonsocial,3,0,3,0,1,,,,,,,,,,
,,,,,,,,,,,,,,,,,sisp99,001,2022-04-20_13h21.16.593,RALT_PLD,2020.2.10,Win32,60,,,,,,,,,,,,,,,,,,,,,,,,,3,0,3,0,1,,,,,
A,B,47,A,,,,,,,,,,,,,,sisp99,001,2022-04-20_13h21.16.593,RALT_PLD,2020.2.10,Win32,60,,,,,,B,No,,,,,,,left,0,1.255,Congruent,0,nonsocial,0,0,0,0,1,,,,,,,,,,
A,B,63,B,,,,,,,,,,,,,,sisp99,001,2022-04-20_13h21.16.593,RALT_PLD,2020.2.10,Win32,60,,,,,,A,No,,,,,,,right,0,0.8417,Congruent,0,nonsocial,1,0,1,0,1,,,,,,,,,,
A,B,89,B,,,,,,,,,,,,,,sisp99,001,2022-04-20_13h21.16.593,RALT_PLD,2020.2.10,Win32,60,,,,,,B,Yes,,,,,,,right,0,2.2724,Congruent,1,nonsocial,2,0,2,0,1,,,,,,,,,,
A,B,71,A,,,,,,,,,,,,,,sisp99,001,2022-04-20_13h21.16.593,RALT_PLD,2020.2.10,Win32,60,,,,,,A,Yes,,,,,,,left,0,1.6467,Congruent,1,nonsocial,3,0,3,0,1,,,,,,,,,,
,,,,,,,,,,,,,,,,,sisp99,001,2022-04-20_13h21.16.593,RALT_PLD,2020.2.10,Win32,60,,,,,,,,,,,,,,,,,,,,,,,,,4,0,4,0,1,,,,,
A,B,89,B,,,,,,,,,,,,,,sisp99,001,2022-04-20_13h21.16.593,RALT_PLD,2020.2.10,Win32,60,,,,,,B,Yes,,,,,,,right,0,1.3435,Congruent,1,nonsocial,0,0,0,0,1,,,,,,,,,,
A,B,71,A,,,,,,,,,,,,,,sisp99,001,2022-04-20_13h21.16.593,RALT_PLD,2020.2.10,Win32,60,,,,,,A,Yes,,,,,,,left,0,0.9933,Incongruent,0,nonsocial,1,0,1,0,1,,,,,,,,,,
A,B,47,B,,,,,,,,,,,,,,sisp99,001,2022-04-20_13h21.16.593,RALT_PLD,2020.2.10,Win32,60,,,,,,B,Yes,,,,,,,right,0,0.9634,Congruent,1,nonsocial,2,0,2,0,1,,,,,,,,,,
A,B,63,A,,,,,,,,,,,,,,sisp99,001,2022-04-20_13h21.16.593,RALT_PLD,2020.2.10,Win32,60,,,,,,A,Yes,,,,,,,left,0,1.801,Congruent,1,nonsocial,3,0,3,0,1,,,,,,,,,,
,,,,,,,,,,,,,,,,,sisp99,001,2022-04-20_13h21.16.593,RALT_PLD,2020.2.10,Win32,60,,,,,,,,,,,,,,,,,,,,,,,,,5,0,5,0,1,,,,,
,,,,,,,,,,,,,,,,,sisp99,001,2022-04-20_13h21.16.593,RALT_PLD,2020.2.10,Win32,60,,,,,,,,,,,,,,,,,,,,,,,,,,,,,,1,0,1,0,1
A,B,88,B,,,,,,,,,,,,,,sisp99,001,2022-04-20_13h21.16.593,RALT_PLD,2020.2.10,Win32,60,,,,,,A,No,,,,,,,right,0,1.1966,Congruent,0,social,0,0,0,0,1,,,,,,,,,,
A,B,94,B,,,,,,,,,,,,,,sisp99,001,2022-04-20_13h21.16.593,RALT_PLD,2020.2.10,Win32,60,,,,,,A,No,,,,,,,right,0,1.4116,Incongruent,1,social,1,0,1,0,1,,,,,,,,,,
A,B,78,B,,,,,,,,,,,,,,sisp99,001,2022-04-20_13h21.16.593,RALT_PLD,2020.2.10,Win32,60,,,,,,B,Yes,,,,,,,right,0,1.1883,Congruent,1,social,2,0,2,0,1,,,,,,,,,,
A,B,16,A,,,,,,,,,,,,,,sisp99,001,2022-04-20_13h21.16.593,RALT_PLD,2020.2.10,Win32,60,,,,,,B,No,,,,,,,left,0,1.0244,Incongruent,1,social,3,0,3,0,1,,,,,,,,,,
,,,,,,,,,,,,,,,,,sisp99,001,2022-04-20_13h21.16.593,RALT_PLD,2020.2.10,Win32,60,,,,,,,,,,,,,,,,,,,,,,,,,0,0,0,0,1,,,,,
B,A,94,B,,,,,,,,,,,,,,sisp99,001,2022-04-20_13h21.16.593,RALT_PLD,2020.2.10,Win32,60,,,,,,A,No,,,,,,,left,0,2.0962,Congruent,0,social,0,0,0,0,1,,,,,,,,,,
B,A,16,A,,,,,,,,,,,,,,sisp99,001,2022-04-20_13h21.16.593,RALT_PLD,2020.2.10,Win32,60,,,,,,B,No,,,,,,,right,0,2.9825,Congruent,0,social,1,0,1,0,1,,,,,,,,,,
B,A,88,A,,,,,,,,,,,,,,sisp99,001,2022-04-20_13h21.16.593,RALT_PLD,2020.2.10,Win32,60,,,,,,A,Yes,,,,,,,right,0,2.0342,Congruent,1,social,2,0,2,0,1,,,,,,,,,,
B,A,78,B,,,,,,,,,,,,,,sisp99,001,2022-04-20_13h21.16.593,RALT_PLD,2020.2.10,Win32,60,,,,,,B,Yes,,,,,,,left,0,1.4129,Congruent,1,social,3,0,3,0,1,,,,,,,,,,
,,,,,,,,,,,,,,,,,sisp99,001,2022-04-20_13h21.16.593,RALT_PLD,2020.2.10,Win32,60,,,,,,,,,,,,,,,,,,,,,,,,,1,0,1,0,1,,,,,
A,B,16,B,,,,,,,,,,,,,,sisp99,001,2022-04-20_13h21.16.593,RALT_PLD,2020.2.10,Win32,60,,,,,,B,Yes,,,,,,,right,0,2.3293,Incongruent,0,social,0,0,0,0,1,,,,,,,,,,
A,B,94,A,,,,,,,,,,,,,,sisp99,001,2022-04-20_13h21.16.593,RALT_PLD,2020.2.10,Win32,60,,,,,,A,Yes,,,,,,,left,0,2.0352,Congruent,1,social,1,0,1,0,1,,,,,,,,,,
A,B,78,A,,,,,,,,,,,,,,sisp99,001,2022-04-20_13h21.16.593,RALT_PLD,2020.2.10,Win32,60,,,,,,B,No,,,,,,,left,0,1.2382,Congruent,0,social,2,0,2,0,1,,,,,,,,,,
A,B,88,A,,,,,,,,,,,,,,sisp99,001,2022-04-20_13h21.16.593,RALT_PLD,2020.2.10,Win32,60,,,,,,A,Yes,,,,,,,left,0,1.396,Congruent,1,social,3,0,3,0,1,,,,,,,,,,
,,,,,,,,,,,,,,,,,sisp99,001,2022-04-20_13h21.16.593,RALT_PLD,2020.2.10,Win32,60,,,,,,,,,,,,,,,,,,,,,,,,,2,0,2,0,1,,,,,
B,A,88,A,,,,,,,,,,,,,,sisp99,001,2022-04-20_13h21.16.593,RALT_PLD,2020.2.10,Win32,60,,,,,,A,Yes,,,,,,,right,0,2.9599,Incongruent,0,social,0,0,0,0,1,,,,,,,,,,
B,A,94,B,,,,,,,,,,,,,,sisp99,001,2022-04-20_13h21.16.593,RALT_PLD,2020.2.10,Win32,60,,,,,,A,No,,,,,,,left,0,1.7839,Congruent,0,social,1,0,1,0,1,,,,,,,,,,
B,A,78,B,,,,,,,,,,,,,,sisp99,001,2022-04-20_13h21.16.593,RALT_PLD,2020.2.10,Win32,60,,,,,,B,Yes,,,,,,,left,0,2.3941,Congruent,1,social,2,0,2,0,1,,,,,,,,,,
B,A,16,A,,,,,,,,,,,,,,sisp99,001,2022-04-20_13h21.16.593,RALT_PLD,2020.2.10,Win32,60,,,,,,B,No,,,,,,,right,0,1.1028,Congruent,0,social,3,0,3,0,1,,,,,,,,,,
,,,,,,,,,,,,,,,,,sisp99,001,2022-04-20_13h21.16.593,RALT_PLD,2020.2.10,Win32,60,,,,,,,,,,,,,,,,,,,,,,,,,3,0,3,0,1,,,,,
B,A,16,A,,,,,,,,,,,,,,sisp99,001,2022-04-20_13h21.16.593,RALT_PLD,2020.2.10,Win32,60,,,,,,B,No,,,,,,,right,0,2.0064,Congruent,0,social,0,0,0,0,1,,,,,,,,,,
B,A,94,B,,,,,,,,,,,,,,sisp99,001,2022-04-20_13h21.16.593,RALT_PLD,2020.2.10,Win32,60,,,,,,A,No,,,,,,,left,0,2.2785,Congruent,0,social,1,0,1,0,1,,,,,,,,,,
B,A,78,B,,,,,,,,,,,,,,sisp99,001,2022-04-20_13h21.16.593,RALT_PLD,2020.2.10,Win32,60,,,,,,B,Yes,,,,,,,left,0,2.3876,Congruent,1,social,2,0,2,0,1,,,,,,,,,,
B,A,88,B,,,,,,,,,,,,,,sisp99,001,2022-04-20_13h21.16.593,RALT_PLD,2020.2.10,Win32,60,,,,,,A,No,,,,,,,left,0,0.5777,Congruent,0,social,3,0,3,0,1,,,,,,,,,,
,,,,,,,,,,,,,,,,,sisp99,001,2022-04-20_13h21.16.593,RALT_PLD,2020.2.10,Win32,60,,,,,,,,,,,,,,,,,,,,,,,,,4,0,4,0,1,,,,,
B,A,94,B,,,,,,,,,,,,,,sisp99,001,2022-04-20_13h21.16.593,RALT_PLD,2020.2.10,Win32,60,,,,,,A,No,,,,,,,left,0,1.4888,Congruent,0,social,0,0,0,0,1,,,,,,,,,,
B,A,16,B,,,,,,,,,,,,,,sisp99,001,2022-04-20_13h21.16.593,RALT_PLD,2020.2.10,Win32,60,,,,,,B,Yes,,,,,,,left,0,1.9781,Congruent,1,social,1,0,1,0,1,,,,,,,,,,
B,A,78,B,,,,,,,,,,,,,,sisp99,001,2022-04-20_13h21.16.593,RALT_PLD,2020.2.10,Win32,60,,,,,,B,Yes,,,,,,,left,0,1.6377,Incongruent,0,social,2,0,2,0,1,,,,,,,,,,
B,A,88,A,,,,,,,,,,,,,,sisp99,001,2022-04-20_13h21.16.593,RALT_PLD,2020.2.10,Win32,60,,,,,,A,Yes,,,,,,,right,0,0.5634,Congruent,1,social,3,0,3,0,1,,,,,,,,,,
,,,,,,,,,,,,,,,,,sisp99,001,2022-04-20_13h21.16.593,RALT_PLD,2020.2.10,Win32,60,,,,,,,,,,,,,,,,,,,,,,,,,5,0,5,0,1,,,,,
,,,,,,,,,,,,,,,,,sisp99,001,2022-04-20_13h21.16.593,RALT_PLD,2020.2.10,Win32,60,,,,,,,,,,,,,,,,,,,,,,,,,,,,,,2,0,2,0,1
A,B,63,B,,,,,,,,,,,,,,sisp99,001,2022-04-20_13h21.16.593,RALT_PLD,2020.2.10,Win32,60,,,,,,A,No,,,,,,,right,0,2.0419,Congruent,0,nonsocial,0,0,0,0,1,,,,,,,,,,
A,B,47,A,,,,,,,,,,,,,,sisp99,001,2022-04-20_13h21.16.593,RALT_PLD,2020.2.10,Win32,60,,,,,,B,No,,,,,,,left,0,1.6497,Incongruent,1,nonsocial,1,0,1,0,1,,,,,,,,,,
A,B,71,B,,,,,,,,,,,,,,sisp99,001,2022-04-20_13h21.16.593,RALT_PLD,2020.2.10,Win32,60,,,,,,A,No,,,,,,,right,0,0.9005,Congruent,0,nonsocial,2,0,2,0,1,,,,,,,,,,
A,B,89,A,,,,,,,,,,,,,,sisp99,001,2022-04-20_13h21.16.593,RALT_PLD,2020.2.10,Win32,60,,,,,,B,No,,,,,,,left,0,0.616,Congruent,0,nonsocial,3,0,3,0,1,,,,,,,,,,
,,,,,,,,,,,,,,,,,sisp99,001,2022-04-20_13h21.16.593,RALT_PLD,2020.2.10,Win32,60,,,,,,,,,,,,,,,,,,,,,,,,,0,0,0,0,1,,,,,
B,A,47,A,,,,,,,,,,,,,,sisp99,001,2022-04-20_13h21.16.593,RALT_PLD,2020.2.10,Win32,60,,,,,,B,No,,,,,,,right,0,2.0071,Incongruent,1,nonsocial,0,0,0,0,1,,,,,,,,,,
B,A,71,A,,,,,,,,,,,,,,sisp99,001,2022-04-20_13h21.16.593,RALT_PLD,2020.2.10,Win32,60,,,,,,A,Yes,,,,,,,right,0,1.2779,Congruent,1,nonsocial,1,0,1,0,1,,,,,,,,,,
B,A,89,B,,,,,,,,,,,,,,sisp99,001,2022-04-20_13h21.16.593,RALT_PLD,2020.2.10,Win32,60,,,,,,B,Yes,,,,,,,left,0,1.0718,Incongruent,0,nonsocial,2,0,2,0,1,,,,,,,,,,
B,A,63,A,,,,,,,,,,,,,,sisp99,001,2022-04-20_13h21.16.593,RALT_PLD,2020.2.10,Win32,60,,,,,,A,Yes,,,,,,,right,0,0.8542,Congruent,1,nonsocial,3,0,3,0,1,,,,,,,,,,
,,,,,,,,,,,,,,,,,sisp99,001,2022-04-20_13h21.16.593,RALT_PLD,2020.2.10,Win32,60,,,,,,,,,,,,,,,,,,,,,,,,,1,0,1,0,1,,,,,
B,A,63,A,,,,,,,,,,,,,,sisp99,001,2022-04-20_13h21.16.593,RALT_PLD,2020.2.10,Win32,60,,,,,,A,Yes,,,,,,,right,0,1.0558,Congruent,1,nonsocial,0,0,0,0,1,,,,,,,,,,
B,A,71,A,,,,,,,,,,,,,,sisp99,001,2022-04-20_13h21.16.593,RALT_PLD,2020.2.10,Win32,60,,,,,,A,Yes,,,,,,,right,0,1.0989,Congruent,1,nonsocial,1,0,1,0,1,,,,,,,,,,
B,A,47,A,,,,,,,,,,,,,,sisp99,001,2022-04-20_13h21.16.593,RALT_PLD,2020.2.10,Win32,60,,,,,,B,No,,,,,,,right,0,0.6119,Congruent,0,nonsocial,2,0,2,0,1,,,,,,,,,,
B,A,89,A,,,,,,,,,,,,,,sisp99,001,2022-04-20_13h21.16.593,RALT_PLD,2020.2.10,Win32,60,,,,,,B,No,,,,,,,right,0,1.4275,Congruent,0,nonsocial,3,0,3,0,1,,,,,,,,,,
,,,,,,,,,,,,,,,,,sisp99,001,2022-04-20_13h21.16.593,RALT_PLD,2020.2.10,Win32,60,,,,,,,,,,,,,,,,,,,,,,,,,2,0,2,0,1,,,,,
A,B,47,A,,,,,,,,,,,,,,sisp99,001,2022-04-20_13h21.16.593,RALT_PLD,2020.2.10,Win32,60,,,,,,B,No,,,,,,,left,0,1.5161,Incongruent,1,nonsocial,0,0,0,0,1,,,,,,,,,,
A,B,63,A,,,,,,,,,,,,,,sisp99,001,2022-04-20_13h21.16.593,RALT_PLD,2020.2.10,Win32,60,,,,,,A,Yes,,,,,,,left,0,1.1469,Congruent,1,nonsocial,1,0,1,0,1,,,,,,,,,,
A,B,71,B,,,,,,,,,,,,,,sisp99,001,2022-04-20_13h21.16.593,RALT_PLD,2020.2.10,Win32,60,,,,,,A,No,,,,,,,right,0,1.3193,Congruent,0,nonsocial,2,0,2,0,1,,,,,,,,,,
A,B,89,B,,,,,,,,,,,,,,sisp99,001,2022-04-20_13h21.16.593,RALT_PLD,2020.2.10,Win32,60,,,,,,B,Yes,,,,,,,right,0,1.1674,Congruent,1,nonsocial,3,0,3,0,1,,,,,,,,,,
,,,,,,,,,,,,,,,,,sisp99,001,2022-04-20_13h21.16.593,RALT_PLD,2020.2.10,Win32,60,,,,,,,,,,,,,,,,,,,,,,,,,3,0,3,0,1,,,,,
B,A,89,A,,,,,,,,,,,,,,sisp99,001,2022-04-20_13h21.16.593,RALT_PLD,2020.2.10,Win32,60,,,,,,B,No,,,,,,,right,0,1.5824,Congruent,0,nonsocial,0,0,0,0,1,,,,,,,,,,
B,A,71,B,,,,,,,,,,,,,,sisp99,001,2022-04-20_13h21.16.593,RALT_PLD,2020.2.10,Win32,60,,,,,,A,No,,,,,,,left,0,1.044,Congruent,0,nonsocial,1,0,1,0,1,,,,,,,,,,
B,A,47,B,,,,,,,,,,,,,,sisp99,001,2022-04-20_13h21.16.593,RALT_PLD,2020.2.10,Win32,60,,,,,,B,Yes,,,,,,,left,0,0.5259,Congruent,1,nonsocial,2,0,2,0,1,,,,,,,,,,
B,A,63,B,,,,,,,,,,,,,,sisp99,001,2022-04-20_13h21.16.593,RALT_PLD,2020.2.10,Win32,60,,,,,,A,No,,,,,,,left,0,0.6731,Congruent,0,nonsocial,3,0,3,0,1,,,,,,,,,,
,,,,,,,,,,,,,,,,,sisp99,001,2022-04-20_13h21.16.593,RALT_PLD,2020.2.10,Win32,60,,,,,,,,,,,,,,,,,,,,,,,,,4,0,4,0,1,,,,,
B,A,63,A,,,,,,,,,,,,,,sisp99,001,2022-04-20_13h21.16.593,RALT_PLD,2020.2.10,Win32,60,,,,,,A,Yes,,,,,,,right,0,1.4325,Incongruent,0,nonsocial,0,0,0,0,1,,,,,,,,,,
B,A,89,B,,,,,,,,,,,,,,sisp99,001,2022-04-20_13h21.16.593,RALT_PLD,2020.2.10,Win32,60,,,,,,B,Yes,,,,,,,left,0,1.2165,Incongruent,0,nonsocial,1,0,1,0,1,,,,,,,,,,
B,A,71,A,,,,,,,,,,,,,,sisp99,001,2022-04-20_13h21.16.593,RALT_PLD,2020.2.10,Win32,60,,,,,,A,Yes,,,,,,,right,0,1.3439,Congruent,1,nonsocial,2,0,2,0,1,,,,,,,,,,
B,A,47,B,,,,,,,,,,,,,,sisp99,001,2022-04-20_13h21.16.593,RALT_PLD,2020.2.10,Win32,60,,,,,,B,Yes,,,,,,,left,0,1.2178,Congruent,1,nonsocial,3,0,3,0,1,,,,,,,,,,
,,,,,,,,,,,,,,,,,sisp99,001,2022-04-20_13h21.16.593,RALT_PLD,2020.2.10,Win32,60,,,,,,,,,,,,,,,,,,,,,,,,,5,0,5,0,1,,,,,
,,,,,,,,,,,,,,,,,sisp99,001,2022-04-20_13h21.16.593,RALT_PLD,2020.2.10,Win32,60,,,,,,,,,,,,,,,,,,,,,,,,,,,,,,3,0,3,0,1
