left,right,stim,response_training.keys,response_training.corr,training_social.thisRepN,training_social.thisTrialN,training_social.thisN,training_social.thisIndex,training_social.ran,Stim,filename_neutral,filename_feedback_happy,filename_feedback_angry,CorrCatTrain,participant,session,date,expName,psychopyVersion,OS,frameRate,ParticipantAnswer,response_training.rt,training_nonsocial.thisRepN,training_nonsocial.thisTrialN,training_nonsocial.thisN,training_nonsocial.thisIndex,training_nonsocial.ran,CorrCat,CorrectAns,prob_fb.thisRepN,prob_fb.thisTrialN,prob_fb.thisN,prob_fb.thisIndex,prob_fb.ran,CorrCatProb,response_training_2.keys,response_training_2.corr,response_training_2.rt,Congr/Incongr,Reward,BlockType,trials.thisRepN,trials.thisTrialN,trials.thisN,trials.thisIndex,trials.ran,cycles.thisRepN,cycles.thisTrialN,cycles.thisN,cycles.thisIndex,cycles.ran,blocks.thisRepN,blocks.thisTrialN,blocks.thisN,blocks.thisIndex,blocks.ran
B,A,38,,0,0,0,0,1,1,38,Stimuli/neutral/Still.jpg,Stimuli/social/happy/M02-Happy Man.mp4,Stimuli/social/angry/M06-Angry Man.mp4,A,gefr88,001,2022-04-06_13h03.47.645,RALT_PLD,2020.2.10,Win32,60,,,,,,,,,,,,,,,,,,,,,,,,,,,,,,,,,,,,
B,A,99,right,0,0,1,1,0,1,99,Stimuli/neutral/Still.jpg,Stimuli/social/happy/F01-Happy Women.mp4,Stimuli/social/angry/F04-Angry Women.mp4,A,gefr88,001,2022-04-06_13h03.47.645,RALT_PLD,2020.2.10,Win32,60,A,1.4176,,,,,,,,,,,,,,,,,,,,,,,,,,,,,,,,,,
B,A,91,right,0,0,2,2,2,1,91,Stimuli/neutral/Still.jpg,Stimuli/social/happy/F01-Happy Women.mp4,Stimuli/social/angry/F04-Angry Women.mp4,B,gefr88,001,2022-04-06_13h03.47.645,RALT_PLD,2020.2.10,Win32,60,A,2.0661,,,,,,,,,,,,,,,,,,,,,,,,,,,,,,,,,,
B,A,38,left,0,0,3,3,3,1,38,Stimuli/neutral/Still.jpg,Stimuli/social/happy/M02-Happy Man.mp4,Stimuli/social/angry/M06-Angry Man.mp4,B,gefr88,001,2022-04-06_13h03.47.645,RALT_PLD,2020.2.10,Win32,60,B,1.1574,,,,,,,,,,,,,,,,,,,,,,,,,,,,,,,,,,
B,A,53,right,0,,,,,,53,Stimuli/neutral/Still.jpg,Stimuli/nonsocial/Right Tick.mp4,Stimuli/nonsocial/Wrong Tick.mp4,A,gefr88,001,2022-04-06_13h03.47.645,RALT_PLD,2020.2.10,Win32,60,A,2.2388,0,0,0,1,1,,,,,,,,,,,,,,,,,,,,,,,,,,,,,
B,A,39,left,0,,,,,,39,Stimuli/neutral/Still.jpg,Stimuli/nonsocial/Right Tick.mp4,Stimuli/nonsocial/Wrong Tick.mp4,B,gefr88,001,2022-04-06_13h03.47.645,RALT_PLD,2020.2.10,Win32,60,B,0.9597,0,1,1,3,1,,,,,,,,,,,,,,,,,,,,,,,,,,,,,
B,A,98,right,0,,,,,,98,Stimuli/neutral/Still.jpg,Stimuli/nonsocial/Right Tick.mp4,Stimuli/nonsocial/Wrong Tick.mp4,B,gefr88,001,2022-04-06_13h03.47.645,RALT_PLD,2020.2.10,Win32,60,A,1.0614,0,2,2,0,1,,,,,,,,,,,,,,,,,,,,,,,,,,,,,
B,A,43,left,0,,,,,,43,Stimuli/neutral/Still.jpg,Stimuli/nonsocial/Right Tick.mp4,Stimuli/nonsocial/Wrong Tick.mp4,A,gefr88,001,2022-04-06_13h03.47.645,RALT_PLD,2020.2.10,Win32,60,B,0.8739,0,3,3,2,1,,,,,,,,,,,,,,,,,,,,,,,,,,,,,
B,A,38,right,0,,,,,,38,Stimuli/neutral/Still.jpg,Stimuli/social/happy/M02-Happy Man.mp4,Stimuli/social/angry/M06-Angry Man.mp4,,gefr88,001,2022-04-06_13h03.47.645,RALT_PLD,2020.2.10,Win32,60,A,1.4019,,,,,,"[[""A"",""A"",""B"",""B""],[""B"",""B"",""A"",""A""]]",No,0,0,0,3,1,B,,,,,,,,,,,,,,,,,,,,,
B,A,38,right,0,,,,,,38,Stimuli/neutral/Still.jpg,Stimuli/social/happy/M02-Happy Man.mp4,Stimuli/social/angry/M06-Angry Man.mp4,,gefr88,001,2022-04-06_13h03.47.645,RALT_PLD,2020.2.10,Win32,60,A,1.1573,,,,,,"[[""A"",""A"",""B"",""B""],[""B"",""B"",""A"",""A""]]",Yes,0,1,1,1,1,A,,,,,,,,,,,,,,,,,,,,,
B,A,99,right,0,,,,,,99,Stimuli/neutral/Still.jpg,Stimuli/social/happy/F01-Happy Women.mp4,Stimuli/social/angry/F04-Angry Women.mp4,,gefr88,001,2022-04-06_13h03.47.645,RALT_PLD,2020.2.10,Win32,60,A,1.6963,,,,,,"[[""A"",""A"",""B"",""B""],[""B"",""B"",""A"",""A""]]",Yes,0,2,2,0,1,A,,,,,,,,,,,,,,,,,,,,,
B,A,91,right,0,,,,,,91,Stimuli/neutral/Still.jpg,Stimuli/social/happy/F01-Happy Women.mp4,Stimuli/social/angry/F04-Angry Women.mp4,,gefr88,001,2022-04-06_13h03.47.645,RALT_PLD,2020.2.10,Win32,60,A,2.5809,,,,,,"[[""A"",""A"",""B"",""B""],[""B"",""B"",""A"",""A""]]",No,0,3,3,2,1,B,,,,,,,,,,,,,,,,,,,,,
B,A,74,,,,,,,,,,,,,gefr88,001,2022-04-06_13h03.47.645,RALT_PLD,2020.2.10,Win32,60,A,,,,,,,B,No,,,,,,,right,0,1.3808,Congruent,0,nonsocial,0,0,0,0,1,,,,,,,,,,
B,A,84,,,,,,,,,,,,,gefr88,001,2022-04-06_13h03.47.645,RALT_PLD,2020.2.10,Win32,60,A,,,,,,,B,No,,,,,,,right,0,1.3004,Congruent,0,nonsocial,1,0,1,0,1,,,,,,,,,,
B,A,52,,,,,,,,,,,,,gefr88,001,2022-04-06_13h03.47.645,RALT_PLD,2020.2.10,Win32,60,A,,,,,,,A,Yes,,,,,,,right,0,2.2138,Congruent,1,nonsocial,2,0,2,0,1,,,,,,,,,,
B,A,98,,,,,,,,,,,,,gefr88,001,2022-04-06_13h03.47.645,RALT_PLD,2020.2.10,Win32,60,A,,,,,,,A,Yes,,,,,,,right,0,1.3193,Incongruent,0,nonsocial,3,0,3,0,1,,,,,,,,,,
,,,,,,,,,,,,,,,gefr88,001,2022-04-06_13h03.47.645,RALT_PLD,2020.2.10,Win32,60,,,,,,,,,,,,,,,,,,,,,,,,,,,0,0,0,0,1,,,,,
A,B,98,,,,,,,,,,,,,gefr88,001,2022-04-06_13h03.47.645,RALT_PLD,2020.2.10,Win32,60,B,,,,,,,A,No,,,,,,,right,0,2.775,Congruent,0,nonsocial,0,0,0,0,1,,,,,,,,,,
A,B,74,,,,,,,,,,,,,gefr88,001,2022-04-06_13h03.47.645,RALT_PLD,2020.2.10,Win32,60,B,,,,,,,B,Yes,,,,,,,right,0,4.8914,Incongruent,0,nonsocial,1,0,1,0,1,,,,,,,,,,
A,B,84,,,,,,,,,,,,,gefr88,001,2022-04-06_13h03.47.645,RALT_PLD,2020.2.10,Win32,60,A,,,,,,,B,No,,,,,,,left,0,0.7135,Congruent,0,nonsocial,2,0,2,0,1,,,,,,,,,,
A,B,52,,,,,,,,,,,,,gefr88,001,2022-04-06_13h03.47.645,RALT_PLD,2020.2.10,Win32,60,A,,,,,,,A,Yes,,,,,,,left,0,1.7454,Congruent,1,nonsocial,3,0,3,0,1,,,,,,,,,,
,,,,,,,,,,,,,,,gefr88,001,2022-04-06_13h03.47.645,RALT_PLD,2020.2.10,Win32,60,,,,,,,,,,,,,,,,,,,,,,,,,,,1,0,1,0,1,,,,,
B,A,98,,,,,,,,,,,,,gefr88,001,2022-04-06_13h03.47.645,RALT_PLD,2020.2.10,Win32,60,B,,,,,,,A,No,,,,,,,left,0,4.5618,Congruent,0,nonsocial,0,0,0,0,1,,,,,,,,,,
B,A,74,,,,,,,,,,,,,gefr88,001,2022-04-06_13h03.47.645,RALT_PLD,2020.2.10,Win32,60,A,,,,,,,B,No,,,,,,,right,0,0.5473,Congruent,0,nonsocial,1,0,1,0,1,,,,,,,,,,
B,A,84,,,,,,,,,,,,,gefr88,001,2022-04-06_13h03.47.645,RALT_PLD,2020.2.10,Win32,60,B,,,,,,,B,Yes,,,,,,,left,0,0.7735,Congruent,1,nonsocial,2,0,2,0,1,,,,,,,,,,
B,A,52,,,,,,,,,,,,,gefr88,001,2022-04-06_13h03.47.645,RALT_PLD,2020.2.10,Win32,60,A,,,,,,,A,Yes,,,,,,,right,0,0.5906,Congruent,1,nonsocial,3,0,3,0,1,,,,,,,,,,
,,,,,,,,,,,,,,,gefr88,001,2022-04-06_13h03.47.645,RALT_PLD,2020.2.10,Win32,60,,,,,,,,,,,,,,,,,,,,,,,,,,,2,0,2,0,1,,,,,
B,A,52,,,,,,,,,,,,,gefr88,001,2022-04-06_13h03.47.645,RALT_PLD,2020.2.10,Win32,60,A,,,,,,,A,Yes,,,,,,,right,0,1.5722,Congruent,1,nonsocial,0,0,0,0,1,,,,,,,,,,
B,A,74,,,,,,,,,,,,,gefr88,001,2022-04-06_13h03.47.645,RALT_PLD,2020.2.10,Win32,60,B,,,,,,,B,Yes,,,,,,,left,0,1.361,Congruent,1,nonsocial,1,0,1,0,1,,,,,,,,,,
B,A,84,,,,,,,,,,,,,gefr88,001,2022-04-06_13h03.47.645,RALT_PLD,2020.2.10,Win32,60,B,,,,,,,B,Yes,,,,,,,left,0,0.6652,Congruent,1,nonsocial,2,0,2,0,1,,,,,,,,,,
B,A,98,,,,,,,,,,,,,gefr88,001,2022-04-06_13h03.47.645,RALT_PLD,2020.2.10,Win32,60,B,,,,,,,A,No,,,,,,,left,0,0.5063,Congruent,0,nonsocial,3,0,3,0,1,,,,,,,,,,
,,,,,,,,,,,,,,,gefr88,001,2022-04-06_13h03.47.645,RALT_PLD,2020.2.10,Win32,60,,,,,,,,,,,,,,,,,,,,,,,,,,,3,0,3,0,1,,,,,
B,A,74,,,,,,,,,,,,,gefr88,001,2022-04-06_13h03.47.645,RALT_PLD,2020.2.10,Win32,60,B,,,,,,,B,Yes,,,,,,,left,0,1.2913,Congruent,1,nonsocial,0,0,0,0,1,,,,,,,,,,
B,A,52,,,,,,,,,,,,,gefr88,001,2022-04-06_13h03.47.645,RALT_PLD,2020.2.10,Win32,60,A,,,,,,,A,Yes,,,,,,,right,0,1.0271,Congruent,1,nonsocial,1,0,1,0,1,,,,,,,,,,
B,A,98,,,,,,,,,,,,,gefr88,001,2022-04-06_13h03.47.645,RALT_PLD,2020.2.10,Win32,60,A,,,,,,,A,Yes,,,,,,,right,0,0.8906,Congruent,1,nonsocial,2,0,2,0,1,,,,,,,,,,
B,A,84,,,,,,,,,,,,,gefr88,001,2022-04-06_13h03.47.645,RALT_PLD,2020.2.10,Win32,60,B,,,,,,,B,Yes,,,,,,,left,0,0.4083,Congruent,1,nonsocial,3,0,3,0,1,,,,,,,,,,
,,,,,,,,,,,,,,,gefr88,001,2022-04-06_13h03.47.645,RALT_PLD,2020.2.10,Win32,60,,,,,,,,,,,,,,,,,,,,,,,,,,,4,0,4,0,1,,,,,
A,B,52,,,,,,,,,,,,,gefr88,001,2022-04-06_13h03.47.645,RALT_PLD,2020.2.10,Win32,60,A,,,,,,,A,Yes,,,,,,,left,0,2.442,Congruent,1,nonsocial,0,0,0,0,1,,,,,,,,,,
A,B,84,,,,,,,,,,,,,gefr88,001,2022-04-06_13h03.47.645,RALT_PLD,2020.2.10,Win32,60,B,,,,,,,B,Yes,,,,,,,right,0,0.8318,Congruent,1,nonsocial,1,0,1,0,1,,,,,,,,,,
A,B,98,,,,,,,,,,,,,gefr88,001,2022-04-06_13h03.47.645,RALT_PLD,2020.2.10,Win32,60,A,,,,,,,A,Yes,,,,,,,left,0,1.0819,Incongruent,0,nonsocial,2,0,2,0,1,,,,,,,,,,
A,B,74,,,,,,,,,,,,,gefr88,001,2022-04-06_13h03.47.645,RALT_PLD,2020.2.10,Win32,60,B,,,,,,,B,Yes,,,,,,,right,0,0.472,Congruent,1,nonsocial,3,0,3,0,1,,,,,,,,,,
,,,,,,,,,,,,,,,gefr88,001,2022-04-06_13h03.47.645,RALT_PLD,2020.2.10,Win32,60,,,,,,,,,,,,,,,,,,,,,,,,,,,5,0,5,0,1,,,,,
,,,,,,,,,,,,,,,gefr88,001,2022-04-06_13h03.47.645,RALT_PLD,2020.2.10,Win32,60,,,,,,,,,,,,,,,,,,,,,,,,,,,,,,,,0,0,0,0,1
B,A,21,,,,,,,,,,,,,gefr88,001,2022-04-06_13h03.47.645,RALT_PLD,2020.2.10,Win32,60,A,,,,,,,A,Yes,,,,,,,right,0,2.0807,Congruent,1,social,0,0,0,0,1,,,,,,,,,,
B,A,37,,,,,,,,,,,,,gefr88,001,2022-04-06_13h03.47.645,RALT_PLD,2020.2.10,Win32,60,B,,,,,,,A,No,,,,,,,left,0,1.6307,Congruent,0,social,1,0,1,0,1,,,,,,,,,,
B,A,49,,,,,,,,,,,,,gefr88,001,2022-04-06_13h03.47.645,RALT_PLD,2020.2.10,Win32,60,B,,,,,,,B,Yes,,,,,,,left,0,0.9517,Congruent,1,social,2,0,2,0,1,,,,,,,,,,
B,A,65,,,,,,,,,,,,,gefr88,001,2022-04-06_13h03.47.645,RALT_PLD,2020.2.10,Win32,60,B,,,,,,,B,Yes,,,,,,,left,0,1.8791,Congruent,1,social,3,0,3,0,1,,,,,,,,,,
,,,,,,,,,,,,,,,gefr88,001,2022-04-06_13h03.47.645,RALT_PLD,2020.2.10,Win32,60,,,,,,,,,,,,,,,,,,,,,,,,,,,0,0,0,0,1,,,,,
B,A,65,,,,,,,,,,,,,gefr88,001,2022-04-06_13h03.47.645,RALT_PLD,2020.2.10,Win32,60,B,,,,,,,B,Yes,,,,,,,left,0,1.9601,Congruent,1,social,0,0,0,0,1,,,,,,,,,,
B,A,21,,,,,,,,,,,,,gefr88,001,2022-04-06_13h03.47.645,RALT_PLD,2020.2.10,Win32,60,A,,,,,,,A,Yes,,,,,,,right,0,0.7429,Congruent,1,social,1,0,1,0,1,,,,,,,,,,
B,A,37,,,,,,,,,,,,,gefr88,001,2022-04-06_13h03.47.645,RALT_PLD,2020.2.10,Win32,60,B,,,,,,,A,No,,,,,,,left,0,1.1876,Congruent,0,social,2,0,2,0,1,,,,,,,,,,
B,A,49,,,,,,,,,,,,,gefr88,001,2022-04-06_13h03.47.645,RALT_PLD,2020.2.10,Win32,60,A,,,,,,,B,No,,,,,,,right,0,0.7413,Congruent,0,social,3,0,3,0,1,,,,,,,,,,
,,,,,,,,,,,,,,,gefr88,001,2022-04-06_13h03.47.645,RALT_PLD,2020.2.10,Win32,60,,,,,,,,,,,,,,,,,,,,,,,,,,,1,0,1,0,1,,,,,
A,B,37,,,,,,,,,,,,,gefr88,001,2022-04-06_13h03.47.645,RALT_PLD,2020.2.10,Win32,60,B,,,,,,,A,No,,,,,,,right,0,1.1538,Congruent,0,social,0,0,0,0,1,,,,,,,,,,
A,B,21,,,,,,,,,,,,,gefr88,001,2022-04-06_13h03.47.645,RALT_PLD,2020.2.10,Win32,60,A,,,,,,,A,Yes,,,,,,,left,0,1.1927,Congruent,1,social,1,0,1,0,1,,,,,,,,,,
A,B,65,,,,,,,,,,,,,gefr88,001,2022-04-06_13h03.47.645,RALT_PLD,2020.2.10,Win32,60,B,,,,,,,B,Yes,,,,,,,right,0,1.0058,Congruent,1,social,2,0,2,0,1,,,,,,,,,,
A,B,49,,,,,,,,,,,,,gefr88,001,2022-04-06_13h03.47.645,RALT_PLD,2020.2.10,Win32,60,A,,,,,,,B,No,,,,,,,left,0,1.0054,Congruent,0,social,3,0,3,0,1,,,,,,,,,,
,,,,,,,,,,,,,,,gefr88,001,2022-04-06_13h03.47.645,RALT_PLD,2020.2.10,Win32,60,,,,,,,,,,,,,,,,,,,,,,,,,,,2,0,2,0,1,,,,,
A,B,49,,,,,,,,,,,,,gefr88,001,2022-04-06_13h03.47.645,RALT_PLD,2020.2.10,Win32,60,B,,,,,,,B,Yes,,,,,,,right,0,0.9075,Congruent,1,social,0,0,0,0,1,,,,,,,,,,
A,B,21,,,,,,,,,,,,,gefr88,001,2022-04-06_13h03.47.645,RALT_PLD,2020.2.10,Win32,60,A,,,,,,,A,Yes,,,,,,,left,0,0.7867,Congruent,1,social,1,0,1,0,1,,,,,,,,,,
A,B,65,,,,,,,,,,,,,gefr88,001,2022-04-06_13h03.47.645,RALT_PLD,2020.2.10,Win32,60,B,,,,,,,B,Yes,,,,,,,right,0,1.725,Congruent,1,social,2,0,2,0,1,,,,,,,,,,
A,B,37,,,,,,,,,,,,,gefr88,001,2022-04-06_13h03.47.645,RALT_PLD,2020.2.10,Win32,60,A,,,,,,,A,Yes,,,,,,,left,0,0.6841,Incongruent,0,social,3,0,3,0,1,,,,,,,,,,
,,,,,,,,,,,,,,,gefr88,001,2022-04-06_13h03.47.645,RALT_PLD,2020.2.10,Win32,60,,,,,,,,,,,,,,,,,,,,,,,,,,,3,0,3,0,1,,,,,
A,B,65,,,,,,,,,,,,,gefr88,001,2022-04-06_13h03.47.645,RALT_PLD,2020.2.10,Win32,60,B,,,,,,,B,Yes,,,,,,,right,0,1.1924,Congruent,1,social,0,0,0,0,1,,,,,,,,,,
A,B,21,,,,,,,,,,,,,gefr88,001,2022-04-06_13h03.47.645,RALT_PLD,2020.2.10,Win32,60,A,,,,,,,A,Yes,,,,,,,left,0,0.6869,Congruent,1,social,1,0,1,0,1,,,,,,,,,,
A,B,49,,,,,,,,,,,,,gefr88,001,2022-04-06_13h03.47.645,RALT_PLD,2020.2.10,Win32,60,A,,,,,,,B,No,,,,,,,left,0,0.9803,Congruent,0,social,2,0,2,0,1,,,,,,,,,,
A,B,37,,,,,,,,,,,,,gefr88,001,2022-04-06_13h03.47.645,RALT_PLD,2020.2.10,Win32,60,A,,,,,,,A,Yes,,,,,,,left,0,0.497,Congruent,1,social,3,0,3,0,1,,,,,,,,,,
,,,,,,,,,,,,,,,gefr88,001,2022-04-06_13h03.47.645,RALT_PLD,2020.2.10,Win32,60,,,,,,,,,,,,,,,,,,,,,,,,,,,4,0,4,0,1,,,,,
B,A,65,,,,,,,,,,,,,gefr88,001,2022-04-06_13h03.47.645,RALT_PLD,2020.2.10,Win32,60,B,,,,,,,B,Yes,,,,,,,left,0,3.6212,Congruent,1,social,0,0,0,0,1,,,,,,,,,,
B,A,21,,,,,,,,,,,,,gefr88,001,2022-04-06_13h03.47.645,RALT_PLD,2020.2.10,Win32,60,A,,,,,,,A,Yes,,,,,,,right,0,0.5515,Congruent,1,social,1,0,1,0,1,,,,,,,,,,
B,A,49,,,,,,,,,,,,,gefr88,001,2022-04-06_13h03.47.645,RALT_PLD,2020.2.10,Win32,60,B,,,,,,,B,Yes,,,,,,,left,0,0.9861,Congruent,1,social,2,0,2,0,1,,,,,,,,,,
B,A,37,,,,,,,,,,,,,gefr88,001,2022-04-06_13h03.47.645,RALT_PLD,2020.2.10,Win32,60,A,,,,,,,A,Yes,,,,,,,right,0,0.662,Incongruent,0,social,3,0,3,0,1,,,,,,,,,,
,,,,,,,,,,,,,,,gefr88,001,2022-04-06_13h03.47.645,RALT_PLD,2020.2.10,Win32,60,,,,,,,,,,,,,,,,,,,,,,,,,,,5,0,5,0,1,,,,,
,,,,,,,,,,,,,,,gefr88,001,2022-04-06_13h03.47.645,RALT_PLD,2020.2.10,Win32,60,,,,,,,,,,,,,,,,,,,,,,,,,,,,,,,,1,0,1,0,1
A,B,84,,,,,,,,,,,,,gefr88,001,2022-04-06_13h03.47.645,RALT_PLD,2020.2.10,Win32,60,B,,,,,,,B,Yes,,,,,,,right,0,1.7926,Congruent,1,nonsocial,0,0,0,0,1,,,,,,,,,,
A,B,52,,,,,,,,,,,,,gefr88,001,2022-04-06_13h03.47.645,RALT_PLD,2020.2.10,Win32,60,A,,,,,,,A,Yes,,,,,,,left,0,1.5864,Congruent,1,nonsocial,1,0,1,0,1,,,,,,,,,,
A,B,98,,,,,,,,,,,,,gefr88,001,2022-04-06_13h03.47.645,RALT_PLD,2020.2.10,Win32,60,A,,,,,,,A,Yes,,,,,,,left,0,1.3456,Congruent,1,nonsocial,2,0,2,0,1,,,,,,,,,,
A,B,74,,,,,,,,,,,,,gefr88,001,2022-04-06_13h03.47.645,RALT_PLD,2020.2.10,Win32,60,B,,,,,,,B,Yes,,,,,,,right,0,0.6271,Congruent,1,nonsocial,3,0,3,0,1,,,,,,,,,,
,,,,,,,,,,,,,,,gefr88,001,2022-04-06_13h03.47.645,RALT_PLD,2020.2.10,Win32,60,,,,,,,,,,,,,,,,,,,,,,,,,,,0,0,0,0,1,,,,,
A,B,84,,,,,,,,,,,,,gefr88,001,2022-04-06_13h03.47.645,RALT_PLD,2020.2.10,Win32,60,B,,,,,,,B,Yes,,,,,,,right,0,1.0399,Congruent,1,nonsocial,0,0,0,0,1,,,,,,,,,,
A,B,52,,,,,,,,,,,,,gefr88,001,2022-04-06_13h03.47.645,RALT_PLD,2020.2.10,Win32,60,A,,,,,,,A,Yes,,,,,,,left,0,0.8704,Congruent,1,nonsocial,1,0,1,0,1,,,,,,,,,,
A,B,74,,,,,,,,,,,,,gefr88,001,2022-04-06_13h03.47.645,RALT_PLD,2020.2.10,Win32,60,B,,,,,,,B,Yes,,,,,,,right,0,0.7365,Congruent,1,nonsocial,2,0,2,0,1,,,,,,,,,,
A,B,98,,,,,,,,,,,,,gefr88,001,2022-04-06_13h03.47.645,RALT_PLD,2020.2.10,Win32,60,A,,,,,,,A,Yes,,,,,,,left,0,0.6273,Congruent,1,nonsocial,3,0,3,0,1,,,,,,,,,,
,,,,,,,,,,,,,,,gefr88,001,2022-04-06_13h03.47.645,RALT_PLD,2020.2.10,Win32,60,,,,,,,,,,,,,,,,,,,,,,,,,,,1,0,1,0,1,,,,,
B,A,84,,,,,,,,,,,,,gefr88,001,2022-04-06_13h03.47.645,RALT_PLD,2020.2.10,Win32,60,B,,,,,,,B,Yes,,,,,,,left,0,1.0291,Congruent,1,nonsocial,0,0,0,0,1,,,,,,,,,,
B,A,74,,,,,,,,,,,,,gefr88,001,2022-04-06_13h03.47.645,RALT_PLD,2020.2.10,Win32,60,B,,,,,,,B,Yes,,,,,,,left,0,1.8318,Congruent,1,nonsocial,1,0,1,0,1,,,,,,,,,,
B,A,98,,,,,,,,,,,,,gefr88,001,2022-04-06_13h03.47.645,RALT_PLD,2020.2.10,Win32,60,A,,,,,,,A,Yes,,,,,,,right,0,0.5269,Congruent,1,nonsocial,2,0,2,0,1,,,,,,,,,,
B,A,52,,,,,,,,,,,,,gefr88,001,2022-04-06_13h03.47.645,RALT_PLD,2020.2.10,Win32,60,A,,,,,,,A,Yes,,,,,,,right,0,0.5641,Congruent,1,nonsocial,3,0,3,0,1,,,,,,,,,,
,,,,,,,,,,,,,,,gefr88,001,2022-04-06_13h03.47.645,RALT_PLD,2020.2.10,Win32,60,,,,,,,,,,,,,,,,,,,,,,,,,,,2,0,2,0,1,,,,,
B,A,84,,,,,,,,,,,,,gefr88,001,2022-04-06_13h03.47.645,RALT_PLD,2020.2.10,Win32,60,B,,,,,,,B,Yes,,,,,,,left,0,1.7547,Congruent,1,nonsocial,0,0,0,0,1,,,,,,,,,,
B,A,52,,,,,,,,,,,,,gefr88,001,2022-04-06_13h03.47.645,RALT_PLD,2020.2.10,Win32,60,A,,,,,,,A,Yes,,,,,,,right,0,0.7367,Congruent,1,nonsocial,1,0,1,0,1,,,,,,,,,,
B,A,98,,,,,,,,,,,,,gefr88,001,2022-04-06_13h03.47.645,RALT_PLD,2020.2.10,Win32,60,A,,,,,,,A,Yes,,,,,,,right,0,1.3093,Congruent,1,nonsocial,2,0,2,0,1,,,,,,,,,,
B,A,74,,,,,,,,,,,,,gefr88,001,2022-04-06_13h03.47.645,RALT_PLD,2020.2.10,Win32,60,B,,,,,,,B,Yes,,,,,,,left,0,0.4203,Congruent,1,nonsocial,3,0,3,0,1,,,,,,,,,,
,,,,,,,,,,,,,,,gefr88,001,2022-04-06_13h03.47.645,RALT_PLD,2020.2.10,Win32,60,,,,,,,,,,,,,,,,,,,,,,,,,,,3,0,3,0,1,,,,,
A,B,52,,,,,,,,,,,,,gefr88,001,2022-04-06_13h03.47.645,RALT_PLD,2020.2.10,Win32,60,A,,,,,,,A,Yes,,,,,,,left,0,1.9432,Congruent,1,nonsocial,0,0,0,0,1,,,,,,,,,,
A,B,74,,,,,,,,,,,,,gefr88,001,2022-04-06_13h03.47.645,RALT_PLD,2020.2.10,Win32,60,B,,,,,,,B,Yes,,,,,,,right,0,1.0446,Congruent,1,nonsocial,1,0,1,0,1,,,,,,,,,,
A,B,98,,,,,,,,,,,,,gefr88,001,2022-04-06_13h03.47.645,RALT_PLD,2020.2.10,Win32,60,A,,,,,,,A,Yes,,,,,,,left,0,0.7302,Congruent,1,nonsocial,2,0,2,0,1,,,,,,,,,,
A,B,84,,,,,,,,,,,,,gefr88,001,2022-04-06_13h03.47.645,RALT_PLD,2020.2.10,Win32,60,B,,,,,,,B,Yes,,,,,,,right,0,0.4499,Congruent,1,nonsocial,3,0,3,0,1,,,,,,,,,,
,,,,,,,,,,,,,,,gefr88,001,2022-04-06_13h03.47.645,RALT_PLD,2020.2.10,Win32,60,,,,,,,,,,,,,,,,,,,,,,,,,,,4,0,4,0,1,,,,,
B,A,52,,,,,,,,,,,,,gefr88,001,2022-04-06_13h03.47.645,RALT_PLD,2020.2.10,Win32,60,A,,,,,,,A,Yes,,,,,,,right,0,1.0158,Incongruent,0,nonsocial,0,0,0,0,1,,,,,,,,,,
B,A,84,,,,,,,,,,,,,gefr88,001,2022-04-06_13h03.47.645,RALT_PLD,2020.2.10,Win32,60,B,,,,,,,B,Yes,,,,,,,left,0,1.4546,Congruent,1,nonsocial,1,0,1,0,1,,,,,,,,,,
B,A,98,,,,,,,,,,,,,gefr88,001,2022-04-06_13h03.47.645,RALT_PLD,2020.2.10,Win32,60,A,,,,,,,A,Yes,,,,,,,right,0,1.1311,Congruent,1,nonsocial,2,0,2,0,1,,,,,,,,,,
B,A,74,,,,,,,,,,,,,gefr88,001,2022-04-06_13h03.47.645,RALT_PLD,2020.2.10,Win32,60,B,,,,,,,B,Yes,,,,,,,left,0,0.6199,Congruent,1,nonsocial,3,0,3,0,1,,,,,,,,,,
,,,,,,,,,,,,,,,gefr88,001,2022-04-06_13h03.47.645,RALT_PLD,2020.2.10,Win32,60,,,,,,,,,,,,,,,,,,,,,,,,,,,5,0,5,0,1,,,,,
,,,,,,,,,,,,,,,gefr88,001,2022-04-06_13h03.47.645,RALT_PLD,2020.2.10,Win32,60,,,,,,,,,,,,,,,,,,,,,,,,,,,,,,,,2,0,2,0,1
B,A,37,,,,,,,,,,,,,gefr88,001,2022-04-06_13h03.47.645,RALT_PLD,2020.2.10,Win32,60,A,,,,,,,A,Yes,,,,,,,right,0,1.4951,Incongruent,0,social,0,0,0,0,1,,,,,,,,,,
B,A,21,,,,,,,,,,,,,gefr88,001,2022-04-06_13h03.47.645,RALT_PLD,2020.2.10,Win32,60,A,,,,,,,A,Yes,,,,,,,right,0,0.7242,Congruent,1,social,1,0,1,0,1,,,,,,,,,,
B,A,49,,,,,,,,,,,,,gefr88,001,2022-04-06_13h03.47.645,RALT_PLD,2020.2.10,Win32,60,B,,,,,,,B,Yes,,,,,,,left,0,1.3832,Congruent,1,social,2,0,2,0,1,,,,,,,,,,
B,A,65,,,,,,,,,,,,,gefr88,001,2022-04-06_13h03.47.645,RALT_PLD,2020.2.10,Win32,60,A,,,,,,,B,No,,,,,,,right,0,0.6146,Congruent,0,social,3,0,3,0,1,,,,,,,,,,
,,,,,,,,,,,,,,,gefr88,001,2022-04-06_13h03.47.645,RALT_PLD,2020.2.10,Win32,60,,,,,,,,,,,,,,,,,,,,,,,,,,,0,0,0,0,1,,,,,
A,B,37,,,,,,,,,,,,,gefr88,001,2022-04-06_13h03.47.645,RALT_PLD,2020.2.10,Win32,60,A,,,,,,,A,Yes,,,,,,,left,0,2.196,Incongruent,0,social,0,0,0,0,1,,,,,,,,,,
A,B,65,,,,,,,,,,,,,gefr88,001,2022-04-06_13h03.47.645,RALT_PLD,2020.2.10,Win32,60,B,,,,,,,B,Yes,,,,,,,right,0,3.7232,Congruent,1,social,1,0,1,0,1,,,,,,,,,,
A,B,21,,,,,,,,,,,,,gefr88,001,2022-04-06_13h03.47.645,RALT_PLD,2020.2.10,Win32,60,A,,,,,,,A,Yes,,,,,,,left,0,0.4513,Incongruent,0,social,2,0,2,0,1,,,,,,,,,,
A,B,49,,,,,,,,,,,,,gefr88,001,2022-04-06_13h03.47.645,RALT_PLD,2020.2.10,Win32,60,A,,,,,,,B,No,,,,,,,left,0,0.4675,Congruent,0,social,3,0,3,0,1,,,,,,,,,,
,,,,,,,,,,,,,,,gefr88,001,2022-04-06_13h03.47.645,RALT_PLD,2020.2.10,Win32,60,,,,,,,,,,,,,,,,,,,,,,,,,,,1,0,1,0,1,,,,,
B,A,49,,,,,,,,,,,,,gefr88,001,2022-04-06_13h03.47.645,RALT_PLD,2020.2.10,Win32,60,B,,,,,,,B,Yes,,,,,,,left,0,2.2363,Congruent,1,social,0,0,0,0,1,,,,,,,,,,
B,A,21,,,,,,,,,,,,,gefr88,001,2022-04-06_13h03.47.645,RALT_PLD,2020.2.10,Win32,60,A,,,,,,,A,Yes,,,,,,,right,0,0.6248,Congruent,1,social,1,0,1,0,1,,,,,,,,,,
B,A,37,,,,,,,,,,,,,gefr88,001,2022-04-06_13h03.47.645,RALT_PLD,2020.2.10,Win32,60,A,,,,,,,A,Yes,,,,,,,right,0,0.9491,Congruent,1,social,2,0,2,0,1,,,,,,,,,,
B,A,65,,,,,,,,,,,,,gefr88,001,2022-04-06_13h03.47.645,RALT_PLD,2020.2.10,Win32,60,B,,,,,,,B,Yes,,,,,,,left,0,0.5575,Congruent,1,social,3,0,3,0,1,,,,,,,,,,
,,,,,,,,,,,,,,,gefr88,001,2022-04-06_13h03.47.645,RALT_PLD,2020.2.10,Win32,60,,,,,,,,,,,,,,,,,,,,,,,,,,,2,0,2,0,1,,,,,
B,A,37,,,,,,,,,,,,,gefr88,001,2022-04-06_13h03.47.645,RALT_PLD,2020.2.10,Win32,60,A,,,,,,,A,Yes,,,,,,,right,0,1.2132,Congruent,1,social,0,0,0,0,1,,,,,,,,,,
B,A,21,,,,,,,,,,,,,gefr88,001,2022-04-06_13h03.47.645,RALT_PLD,2020.2.10,Win32,60,A,,,,,,,A,Yes,,,,,,,right,0,0.5523,Congruent,1,social,1,0,1,0,1,,,,,,,,,,
B,A,49,,,,,,,,,,,,,gefr88,001,2022-04-06_13h03.47.645,RALT_PLD,2020.2.10,Win32,60,B,,,,,,,B,Yes,,,,,,,left,0,0.8889,Congruent,1,social,2,0,2,0,1,,,,,,,,,,
B,A,65,,,,,,,,,,,,,gefr88,001,2022-04-06_13h03.47.645,RALT_PLD,2020.2.10,Win32,60,B,,,,,,,B,Yes,,,,,,,left,0,0.686,Congruent,1,social,3,0,3,0,1,,,,,,,,,,
,,,,,,,,,,,,,,,gefr88,001,2022-04-06_13h03.47.645,RALT_PLD,2020.2.10,Win32,60,,,,,,,,,,,,,,,,,,,,,,,,,,,3,0,3,0,1,,,,,
A,B,21,,,,,,,,,,,,,gefr88,001,2022-04-06_13h03.47.645,RALT_PLD,2020.2.10,Win32,60,A,,,,,,,A,Yes,,,,,,,left,0,0.7786,Congruent,1,social,0,0,0,0,1,,,,,,,,,,
A,B,49,,,,,,,,,,,,,gefr88,001,2022-04-06_13h03.47.645,RALT_PLD,2020.2.10,Win32,60,B,,,,,,,B,Yes,,,,,,,right,0,0.7851,Congruent,1,social,1,0,1,0,1,,,,,,,,,,
A,B,65,,,,,,,,,,,,,gefr88,001,2022-04-06_13h03.47.645,RALT_PLD,2020.2.10,Win32,60,B,,,,,,,B,Yes,,,,,,,right,0,1.7956,Congruent,1,social,2,0,2,0,1,,,,,,,,,,
A,B,37,,,,,,,,,,,,,gefr88,001,2022-04-06_13h03.47.645,RALT_PLD,2020.2.10,Win32,60,A,,,,,,,A,Yes,,,,,,,left,0,0.4198,Congruent,1,social,3,0,3,0,1,,,,,,,,,,
,,,,,,,,,,,,,,,gefr88,001,2022-04-06_13h03.47.645,RALT_PLD,2020.2.10,Win32,60,,,,,,,,,,,,,,,,,,,,,,,,,,,4,0,4,0,1,,,,,
A,B,37,,,,,,,,,,,,,gefr88,001,2022-04-06_13h03.47.645,RALT_PLD,2020.2.10,Win32,60,A,,,,,,,A,Yes,,,,,,,left,0,1.3385,Congruent,1,social,0,0,0,0,1,,,,,,,,,,
A,B,65,,,,,,,,,,,,,gefr88,001,2022-04-06_13h03.47.645,RALT_PLD,2020.2.10,Win32,60,B,,,,,,,B,Yes,,,,,,,right,0,0.7346,Congruent,1,social,1,0,1,0,1,,,,,,,,,,
A,B,21,,,,,,,,,,,,,gefr88,001,2022-04-06_13h03.47.645,RALT_PLD,2020.2.10,Win32,60,A,,,,,,,A,Yes,,,,,,,left,0,0.6848,Congruent,1,social,2,0,2,0,1,,,,,,,,,,
A,B,49,,,,,,,,,,,,,gefr88,001,2022-04-06_13h03.47.645,RALT_PLD,2020.2.10,Win32,60,B,,,,,,,B,Yes,,,,,,,right,0,0.5358,Incongruent,0,social,3,0,3,0,1,,,,,,,,,,
,,,,,,,,,,,,,,,gefr88,001,2022-04-06_13h03.47.645,RALT_PLD,2020.2.10,Win32,60,,,,,,,,,,,,,,,,,,,,,,,,,,,5,0,5,0,1,,,,,
,,,,,,,,,,,,,,,gefr88,001,2022-04-06_13h03.47.645,RALT_PLD,2020.2.10,Win32,60,,,,,,,,,,,,,,,,,,,,,,,,,,,,,,,,3,0,3,0,1
