left,right,stim,ParticipantAnswer,response_training.keys,response_training.corr,response_training.rt,training_social.thisRepN,training_social.thisTrialN,training_social.thisN,training_social.thisIndex,training_social.ran,Stim,filename_neutral,filename_feedback_happy,filename_feedback_angry,CorrCatTrain,participant,session,date,expName,psychopyVersion,OS,frameRate,training_nonsocial.thisRepN,training_nonsocial.thisTrialN,training_nonsocial.thisN,training_nonsocial.thisIndex,training_nonsocial.ran,CorrCat,CorrectAns,prob_fb.thisRepN,prob_fb.thisTrialN,prob_fb.thisN,prob_fb.thisIndex,prob_fb.ran,CorrCatProb,response_training_2.keys,response_training_2.corr,response_training_2.rt,Congr/Incongr,BlockType,trials.thisRepN,trials.thisTrialN,trials.thisN,trials.thisIndex,trials.ran,cycles.thisRepN,cycles.thisTrialN,cycles.thisN,cycles.thisIndex,cycles.ran,blocks.thisRepN,blocks.thisTrialN,blocks.thisN,blocks.thisIndex,blocks.ran
A,B,91,B,right,0,1.4022,0,0,0,2,1,91,Stimuli/neutral/Still.jpg,Stimuli/social/happy/F01-Happy Women.mp4,Stimuli/social/angry/F04-Angry Women.mp4,B,joab01,001,2022-02-17_11h23.16.405,RALT_PLD,2020.2.10,Win32,60,,,,,,,,,,,,,,,,,,,,,,,,,,,,,,,,,
A,B,38,A,left,0,1.4952,0,1,1,3,1,38,Stimuli/neutral/Still.jpg,Stimuli/social/happy/M02-Happy Man.mp4,Stimuli/social/angry/M06-Angry Man.mp4,B,joab01,001,2022-02-17_11h23.16.405,RALT_PLD,2020.2.10,Win32,60,,,,,,,,,,,,,,,,,,,,,,,,,,,,,,,,,
A,B,99,A,left,0,1.2428,0,2,2,0,1,99,Stimuli/neutral/Still.jpg,Stimuli/social/happy/F01-Happy Women.mp4,Stimuli/social/angry/F04-Angry Women.mp4,A,joab01,001,2022-02-17_11h23.16.405,RALT_PLD,2020.2.10,Win32,60,,,,,,,,,,,,,,,,,,,,,,,,,,,,,,,,,
A,B,38,B,right,0,1.4728,0,3,3,1,1,38,Stimuli/neutral/Still.jpg,Stimuli/social/happy/M02-Happy Man.mp4,Stimuli/social/angry/M06-Angry Man.mp4,A,joab01,001,2022-02-17_11h23.16.405,RALT_PLD,2020.2.10,Win32,60,,,,,,,,,,,,,,,,,,,,,,,,,,,,,,,,,
A,B,43,A,left,0,1.8331,,,,,,43,Stimuli/neutral/Still.jpg,Stimuli/nonsocial/Right Tick.mp4,Stimuli/nonsocial/Wrong Tick.mp4,A,joab01,001,2022-02-17_11h23.16.405,RALT_PLD,2020.2.10,Win32,60,0,0,0,2,1,,,,,,,,,,,,,,,,,,,,,,,,,,,,
A,B,39,A,left,0,0.9793,,,,,,39,Stimuli/neutral/Still.jpg,Stimuli/nonsocial/Right Tick.mp4,Stimuli/nonsocial/Wrong Tick.mp4,B,joab01,001,2022-02-17_11h23.16.405,RALT_PLD,2020.2.10,Win32,60,0,1,1,3,1,,,,,,,,,,,,,,,,,,,,,,,,,,,,
A,B,53,B,right,0,1.1352,,,,,,53,Stimuli/neutral/Still.jpg,Stimuli/nonsocial/Right Tick.mp4,Stimuli/nonsocial/Wrong Tick.mp4,A,joab01,001,2022-02-17_11h23.16.405,RALT_PLD,2020.2.10,Win32,60,0,2,2,1,1,,,,,,,,,,,,,,,,,,,,,,,,,,,,
A,B,98,B,right,0,1.4555,,,,,,98,Stimuli/neutral/Still.jpg,Stimuli/nonsocial/Right Tick.mp4,Stimuli/nonsocial/Wrong Tick.mp4,B,joab01,001,2022-02-17_11h23.16.405,RALT_PLD,2020.2.10,Win32,60,0,3,3,0,1,,,,,,,,,,,,,,,,,,,,,,,,,,,,
A,B,38,B,right,0,2.5994,,,,,,38,Stimuli/neutral/Still.jpg,Stimuli/social/happy/M02-Happy Man.mp4,Stimuli/social/angry/M06-Angry Man.mp4,,joab01,001,2022-02-17_11h23.16.405,RALT_PLD,2020.2.10,Win32,60,,,,,,"[[""B"",""A"",""B"",""A""],[""B"",""B"",""A"",""A""]]",No,0,0,0,1,1,A,,,,,,,,,,,,,,,,,,,,
A,B,38,B,right,0,1.1069,,,,,,38,Stimuli/neutral/Still.jpg,Stimuli/social/happy/M02-Happy Man.mp4,Stimuli/social/angry/M06-Angry Man.mp4,,joab01,001,2022-02-17_11h23.16.405,RALT_PLD,2020.2.10,Win32,60,,,,,,"[[""B"",""A"",""B"",""A""],[""B"",""B"",""A"",""A""]]",Yes,0,1,1,3,1,B,,,,,,,,,,,,,,,,,,,,
A,B,91,A,left,0,2.7019,,,,,,91,Stimuli/neutral/Still.jpg,Stimuli/social/happy/F01-Happy Women.mp4,Stimuli/social/angry/F04-Angry Women.mp4,,joab01,001,2022-02-17_11h23.16.405,RALT_PLD,2020.2.10,Win32,60,,,,,,"[[""B"",""A"",""B"",""A""],[""B"",""B"",""A"",""A""]]",No,0,2,2,2,1,B,,,,,,,,,,,,,,,,,,,,
A,B,99,A,left,0,2.733,,,,,,99,Stimuli/neutral/Still.jpg,Stimuli/social/happy/F01-Happy Women.mp4,Stimuli/social/angry/F04-Angry Women.mp4,,joab01,001,2022-02-17_11h23.16.405,RALT_PLD,2020.2.10,Win32,60,,,,,,"[[""B"",""A"",""B"",""A""],[""B"",""B"",""A"",""A""]]",Yes,0,3,3,0,1,A,,,,,,,,,,,,,,,,,,,,
A,B,28,B,,,,,,,,,,,,,,joab01,001,2022-02-17_11h23.16.405,RALT_PLD,2020.2.10,Win32,60,,,,,,B,Yes,,,,,,,right,0,0.9341,Congruent,nonsocial,0,0,0,0,1,,,,,,,,,,
A,B,86,B,,,,,,,,,,,,,,joab01,001,2022-02-17_11h23.16.405,RALT_PLD,2020.2.10,Win32,60,,,,,,A,No,,,,,,,right,0,2.2759,,nonsocial,1,0,1,0,1,,,,,,,,,,
A,B,70,A,,,,,,,,,,,,,,joab01,001,2022-02-17_11h23.16.405,RALT_PLD,2020.2.10,Win32,60,,,,,,B,No,,,,,,,left,0,1.682,,nonsocial,2,0,2,0,1,,,,,,,,,,
A,B,24,B,,,,,,,,,,,,,,joab01,001,2022-02-17_11h23.16.405,RALT_PLD,2020.2.10,Win32,60,,,,,,A,No,,,,,,,right,0,0.9465,,nonsocial,3,0,3,0,1,,,,,,,,,,
,,,,,,,,,,,,,,,,,joab01,001,2022-02-17_11h23.16.405,RALT_PLD,2020.2.10,Win32,60,,,,,,,,,,,,,,,,,,,,,,,,0,0,0,0,1,,,,,
A,B,86,B,,,,,,,,,,,,,,joab01,001,2022-02-17_11h23.16.405,RALT_PLD,2020.2.10,Win32,60,,,,,,A,No,,,,,,,right,0,4.0927,,nonsocial,0,0,0,0,1,,,,,,,,,,
A,B,28,A,,,,,,,,,,,,,,joab01,001,2022-02-17_11h23.16.405,RALT_PLD,2020.2.10,Win32,60,,,,,,B,No,,,,,,,left,0,4.1193,,nonsocial,1,0,1,0,1,,,,,,,,,,
A,B,24,B,,,,,,,,,,,,,,joab01,001,2022-02-17_11h23.16.405,RALT_PLD,2020.2.10,Win32,60,,,,,,A,No,,,,,,,right,0,3.5267,,nonsocial,2,0,2,0,1,,,,,,,,,,
A,B,70,A,,,,,,,,,,,,,,joab01,001,2022-02-17_11h23.16.405,RALT_PLD,2020.2.10,Win32,60,,,,,,B,No,,,,,,,left,0,5.0838,,nonsocial,3,0,3,0,1,,,,,,,,,,
,,,,,,,,,,,,,,,,,joab01,001,2022-02-17_11h23.16.405,RALT_PLD,2020.2.10,Win32,60,,,,,,,,,,,,,,,,,,,,,,,,1,0,1,0,1,,,,,
A,B,70,B,,,,,,,,,,,,,,joab01,001,2022-02-17_11h23.16.405,RALT_PLD,2020.2.10,Win32,60,,,,,,B,Yes,,,,,,,right,0,2.1686,Congruent,nonsocial,0,0,0,0,1,,,,,,,,,,
A,B,28,A,,,,,,,,,,,,,,joab01,001,2022-02-17_11h23.16.405,RALT_PLD,2020.2.10,Win32,60,,,,,,B,No,,,,,,,left,0,3.876,,nonsocial,1,0,1,0,1,,,,,,,,,,
A,B,24,A,,,,,,,,,,,,,,joab01,001,2022-02-17_11h23.16.405,RALT_PLD,2020.2.10,Win32,60,,,,,,A,Yes,,,,,,,left,0,3.5551,Congruent,nonsocial,2,0,2,0,1,,,,,,,,,,
A,B,86,B,,,,,,,,,,,,,,joab01,001,2022-02-17_11h23.16.405,RALT_PLD,2020.2.10,Win32,60,,,,,,A,No,,,,,,,right,0,3.8784,,nonsocial,3,0,3,0,1,,,,,,,,,,
,,,,,,,,,,,,,,,,,joab01,001,2022-02-17_11h23.16.405,RALT_PLD,2020.2.10,Win32,60,,,,,,,,,,,,,,,,,,,,,,,,2,0,2,0,1,,,,,
A,B,28,B,,,,,,,,,,,,,,joab01,001,2022-02-17_11h23.16.405,RALT_PLD,2020.2.10,Win32,60,,,,,,B,Yes,,,,,,,right,0,3.3465,Congruent,nonsocial,0,0,0,0,1,,,,,,,,,,
A,B,70,,,,,,,,,,,,,,,joab01,001,2022-02-17_11h23.16.405,RALT_PLD,2020.2.10,Win32,60,,,,,,B,No,,,,,,,,0,,,nonsocial,1,0,1,0,1,,,,,,,,,,
A,B,24,A,,,,,,,,,,,,,,joab01,001,2022-02-17_11h23.16.405,RALT_PLD,2020.2.10,Win32,60,,,,,,A,Yes,,,,,,,left,0,0.9334,Congruent,nonsocial,2,0,2,0,1,,,,,,,,,,
A,B,86,B,,,,,,,,,,,,,,joab01,001,2022-02-17_11h23.16.405,RALT_PLD,2020.2.10,Win32,60,,,,,,A,No,,,,,,,right,0,1.0334,,nonsocial,3,0,3,0,1,,,,,,,,,,
,,,,,,,,,,,,,,,,,joab01,001,2022-02-17_11h23.16.405,RALT_PLD,2020.2.10,Win32,60,,,,,,,,,,,,,,,,,,,,,,,,3,0,3,0,1,,,,,
A,B,24,B,,,,,,,,,,,,,,joab01,001,2022-02-17_11h23.16.405,RALT_PLD,2020.2.10,Win32,60,,,,,,A,No,,,,,,,right,0,1.2682,,nonsocial,0,0,0,0,1,,,,,,,,,,
A,B,28,A,,,,,,,,,,,,,,joab01,001,2022-02-17_11h23.16.405,RALT_PLD,2020.2.10,Win32,60,,,,,,B,No,,,,,,,left,0,1.4844,,nonsocial,1,0,1,0,1,,,,,,,,,,
A,B,70,A,,,,,,,,,,,,,,joab01,001,2022-02-17_11h23.16.405,RALT_PLD,2020.2.10,Win32,60,,,,,,B,No,,,,,,,left,0,0.9581,,nonsocial,2,0,2,0,1,,,,,,,,,,
A,B,86,A,,,,,,,,,,,,,,joab01,001,2022-02-17_11h23.16.405,RALT_PLD,2020.2.10,Win32,60,,,,,,A,Yes,,,,,,,left,0,1.2455,Congruent,nonsocial,3,0,3,0,1,,,,,,,,,,
,,,,,,,,,,,,,,,,,joab01,001,2022-02-17_11h23.16.405,RALT_PLD,2020.2.10,Win32,60,,,,,,,,,,,,,,,,,,,,,,,,4,0,4,0,1,,,,,
B,A,24,B,,,,,,,,,,,,,,joab01,001,2022-02-17_11h23.16.405,RALT_PLD,2020.2.10,Win32,60,,,,,,A,No,,,,,,,left,0,1.1819,,nonsocial,0,0,0,0,1,,,,,,,,,,
B,A,86,B,,,,,,,,,,,,,,joab01,001,2022-02-17_11h23.16.405,RALT_PLD,2020.2.10,Win32,60,,,,,,A,No,,,,,,,left,0,1.069,,nonsocial,1,0,1,0,1,,,,,,,,,,
B,A,28,A,,,,,,,,,,,,,,joab01,001,2022-02-17_11h23.16.405,RALT_PLD,2020.2.10,Win32,60,,,,,,B,No,,,,,,,right,0,2.2538,,nonsocial,2,0,2,0,1,,,,,,,,,,
B,A,70,A,,,,,,,,,,,,,,joab01,001,2022-02-17_11h23.16.405,RALT_PLD,2020.2.10,Win32,60,,,,,,B,No,,,,,,,right,0,1.4296,,nonsocial,3,0,3,0,1,,,,,,,,,,
,,,,,,,,,,,,,,,,,joab01,001,2022-02-17_11h23.16.405,RALT_PLD,2020.2.10,Win32,60,,,,,,,,,,,,,,,,,,,,,,,,5,0,5,0,1,,,,,
,,,,,,,,,,,,,,,,,joab01,001,2022-02-17_11h23.16.405,RALT_PLD,2020.2.10,Win32,60,,,,,,,,,,,,,,,,,,,,,,,,,,,,,0,0,0,0,1
B,A,83,A,,,,,,,,,,,,,,joab01,001,2022-02-17_11h23.16.405,RALT_PLD,2020.2.10,Win32,60,,,,,,A,Yes,,,,,,,right,0,1.8814,Congruent,social,0,0,0,0,1,,,,,,,,,,
B,A,41,B,,,,,,,,,,,,,,joab01,001,2022-02-17_11h23.16.405,RALT_PLD,2020.2.10,Win32,60,,,,,,B,Yes,,,,,,,left,0,1.3225,Congruent,social,1,0,1,0,1,,,,,,,,,,
B,A,71,A,,,,,,,,,,,,,,joab01,001,2022-02-17_11h23.16.405,RALT_PLD,2020.2.10,Win32,60,,,,,,B,No,,,,,,,right,0,1.325,,social,2,0,2,0,1,,,,,,,,,,
B,A,51,B,,,,,,,,,,,,,,joab01,001,2022-02-17_11h23.16.405,RALT_PLD,2020.2.10,Win32,60,,,,,,A,No,,,,,,,left,0,1.6222,,social,3,0,3,0,1,,,,,,,,,,
,,,,,,,,,,,,,,,,,joab01,001,2022-02-17_11h23.16.405,RALT_PLD,2020.2.10,Win32,60,,,,,,,,,,,,,,,,,,,,,,,,0,0,0,0,1,,,,,
B,A,51,B,,,,,,,,,,,,,,joab01,001,2022-02-17_11h23.16.405,RALT_PLD,2020.2.10,Win32,60,,,,,,A,No,,,,,,,left,0,0.8945,,social,0,0,0,0,1,,,,,,,,,,
B,A,71,B,,,,,,,,,,,,,,joab01,001,2022-02-17_11h23.16.405,RALT_PLD,2020.2.10,Win32,60,,,,,,B,Yes,,,,,,,left,0,1.8225,Congruent,social,1,0,1,0,1,,,,,,,,,,
B,A,83,A,,,,,,,,,,,,,,joab01,001,2022-02-17_11h23.16.405,RALT_PLD,2020.2.10,Win32,60,,,,,,A,Yes,,,,,,,right,0,1.231,Congruent,social,2,0,2,0,1,,,,,,,,,,
B,A,41,B,,,,,,,,,,,,,,joab01,001,2022-02-17_11h23.16.405,RALT_PLD,2020.2.10,Win32,60,,,,,,B,Yes,,,,,,,left,0,1.001,Congruent,social,3,0,3,0,1,,,,,,,,,,
,,,,,,,,,,,,,,,,,joab01,001,2022-02-17_11h23.16.405,RALT_PLD,2020.2.10,Win32,60,,,,,,,,,,,,,,,,,,,,,,,,1,0,1,0,1,,,,,
A,B,51,A,,,,,,,,,,,,,,joab01,001,2022-02-17_11h23.16.405,RALT_PLD,2020.2.10,Win32,60,,,,,,A,Yes,,,,,,,left,0,1.2947,Congruent,social,0,0,0,0,1,,,,,,,,,,
A,B,83,B,,,,,,,,,,,,,,joab01,001,2022-02-17_11h23.16.405,RALT_PLD,2020.2.10,Win32,60,,,,,,A,No,,,,,,,right,0,0.8334,,social,1,0,1,0,1,,,,,,,,,,
A,B,41,A,,,,,,,,,,,,,,joab01,001,2022-02-17_11h23.16.405,RALT_PLD,2020.2.10,Win32,60,,,,,,B,No,,,,,,,left,0,1.0618,,social,2,0,2,0,1,,,,,,,,,,
A,B,71,A,,,,,,,,,,,,,,joab01,001,2022-02-17_11h23.16.405,RALT_PLD,2020.2.10,Win32,60,,,,,,B,No,,,,,,,left,0,1.443,,social,3,0,3,0,1,,,,,,,,,,
,,,,,,,,,,,,,,,,,joab01,001,2022-02-17_11h23.16.405,RALT_PLD,2020.2.10,Win32,60,,,,,,,,,,,,,,,,,,,,,,,,2,0,2,0,1,,,,,
B,A,83,B,,,,,,,,,,,,,,joab01,001,2022-02-17_11h23.16.405,RALT_PLD,2020.2.10,Win32,60,,,,,,A,No,,,,,,,left,0,1.325,,social,0,0,0,0,1,,,,,,,,,,
B,A,51,B,,,,,,,,,,,,,,joab01,001,2022-02-17_11h23.16.405,RALT_PLD,2020.2.10,Win32,60,,,,,,A,No,,,,,,,left,0,1.3804,,social,1,0,1,0,1,,,,,,,,,,
B,A,41,A,,,,,,,,,,,,,,joab01,001,2022-02-17_11h23.16.405,RALT_PLD,2020.2.10,Win32,60,,,,,,B,No,,,,,,,right,0,1.3509,,social,2,0,2,0,1,,,,,,,,,,
B,A,71,A,,,,,,,,,,,,,,joab01,001,2022-02-17_11h23.16.405,RALT_PLD,2020.2.10,Win32,60,,,,,,B,No,,,,,,,right,0,1.2543,,social,3,0,3,0,1,,,,,,,,,,
,,,,,,,,,,,,,,,,,joab01,001,2022-02-17_11h23.16.405,RALT_PLD,2020.2.10,Win32,60,,,,,,,,,,,,,,,,,,,,,,,,3,0,3,0,1,,,,,
A,B,41,A,,,,,,,,,,,,,,joab01,001,2022-02-17_11h23.16.405,RALT_PLD,2020.2.10,Win32,60,,,,,,B,No,,,,,,,left,0,1.267,,social,0,0,0,0,1,,,,,,,,,,
A,B,71,A,,,,,,,,,,,,,,joab01,001,2022-02-17_11h23.16.405,RALT_PLD,2020.2.10,Win32,60,,,,,,B,No,,,,,,,left,0,1.2537,,social,1,0,1,0,1,,,,,,,,,,
A,B,83,B,,,,,,,,,,,,,,joab01,001,2022-02-17_11h23.16.405,RALT_PLD,2020.2.10,Win32,60,,,,,,A,No,,,,,,,right,0,1.4784,,social,2,0,2,0,1,,,,,,,,,,
A,B,51,A,,,,,,,,,,,,,,joab01,001,2022-02-17_11h23.16.405,RALT_PLD,2020.2.10,Win32,60,,,,,,A,Yes,,,,,,,left,0,1.1538,Incongruent,social,3,0,3,0,1,,,,,,,,,,
,,,,,,,,,,,,,,,,,joab01,001,2022-02-17_11h23.16.405,RALT_PLD,2020.2.10,Win32,60,,,,,,,,,,,,,,,,,,,,,,,,4,0,4,0,1,,,,,
B,A,83,A,,,,,,,,,,,,,,joab01,001,2022-02-17_11h23.16.405,RALT_PLD,2020.2.10,Win32,60,,,,,,A,Yes,,,,,,,right,0,1.7793,Congruent,social,0,0,0,0,1,,,,,,,,,,
B,A,51,B,,,,,,,,,,,,,,joab01,001,2022-02-17_11h23.16.405,RALT_PLD,2020.2.10,Win32,60,,,,,,A,No,,,,,,,left,0,2.166,,social,1,0,1,0,1,,,,,,,,,,
B,A,41,B,,,,,,,,,,,,,,joab01,001,2022-02-17_11h23.16.405,RALT_PLD,2020.2.10,Win32,60,,,,,,B,Yes,,,,,,,left,0,0.5632,Incongruent,social,2,0,2,0,1,,,,,,,,,,
B,A,71,A,,,,,,,,,,,,,,joab01,001,2022-02-17_11h23.16.405,RALT_PLD,2020.2.10,Win32,60,,,,,,B,No,,,,,,,right,0,1.2736,,social,3,0,3,0,1,,,,,,,,,,
,,,,,,,,,,,,,,,,,joab01,001,2022-02-17_11h23.16.405,RALT_PLD,2020.2.10,Win32,60,,,,,,,,,,,,,,,,,,,,,,,,5,0,5,0,1,,,,,
,,,,,,,,,,,,,,,,,joab01,001,2022-02-17_11h23.16.405,RALT_PLD,2020.2.10,Win32,60,,,,,,,,,,,,,,,,,,,,,,,,,,,,,1,0,1,0,1
B,A,28,B,,,,,,,,,,,,,,joab01,001,2022-02-17_11h23.16.405,RALT_PLD,2020.2.10,Win32,60,,,,,,B,Yes,,,,,,,left,0,1.6898,Congruent,nonsocial,0,0,0,0,1,,,,,,,,,,
B,A,24,A,,,,,,,,,,,,,,joab01,001,2022-02-17_11h23.16.405,RALT_PLD,2020.2.10,Win32,60,,,,,,A,Yes,,,,,,,right,0,1.3073,Congruent,nonsocial,1,0,1,0,1,,,,,,,,,,
B,A,70,A,,,,,,,,,,,,,,joab01,001,2022-02-17_11h23.16.405,RALT_PLD,2020.2.10,Win32,60,,,,,,B,No,,,,,,,right,0,1.0393,,nonsocial,2,0,2,0,1,,,,,,,,,,
B,A,86,B,,,,,,,,,,,,,,joab01,001,2022-02-17_11h23.16.405,RALT_PLD,2020.2.10,Win32,60,,,,,,A,No,,,,,,,left,0,1.1562,,nonsocial,3,0,3,0,1,,,,,,,,,,
,,,,,,,,,,,,,,,,,joab01,001,2022-02-17_11h23.16.405,RALT_PLD,2020.2.10,Win32,60,,,,,,,,,,,,,,,,,,,,,,,,0,0,0,0,1,,,,,
A,B,70,A,,,,,,,,,,,,,,joab01,001,2022-02-17_11h23.16.405,RALT_PLD,2020.2.10,Win32,60,,,,,,B,No,,,,,,,left,0,1.4238,,nonsocial,0,0,0,0,1,,,,,,,,,,
A,B,28,B,,,,,,,,,,,,,,joab01,001,2022-02-17_11h23.16.405,RALT_PLD,2020.2.10,Win32,60,,,,,,B,Yes,,,,,,,right,0,0.8346,Congruent,nonsocial,1,0,1,0,1,,,,,,,,,,
A,B,24,A,,,,,,,,,,,,,,joab01,001,2022-02-17_11h23.16.405,RALT_PLD,2020.2.10,Win32,60,,,,,,A,Yes,,,,,,,left,0,1.1015,Congruent,nonsocial,2,0,2,0,1,,,,,,,,,,
A,B,86,A,,,,,,,,,,,,,,joab01,001,2022-02-17_11h23.16.405,RALT_PLD,2020.2.10,Win32,60,,,,,,A,Yes,,,,,,,left,0,1.1332,Congruent,nonsocial,3,0,3,0,1,,,,,,,,,,
,,,,,,,,,,,,,,,,,joab01,001,2022-02-17_11h23.16.405,RALT_PLD,2020.2.10,Win32,60,,,,,,,,,,,,,,,,,,,,,,,,1,0,1,0,1,,,,,
A,B,28,B,,,,,,,,,,,,,,joab01,001,2022-02-17_11h23.16.405,RALT_PLD,2020.2.10,Win32,60,,,,,,B,Yes,,,,,,,right,0,0.6927,Congruent,nonsocial,0,0,0,0,1,,,,,,,,,,
A,B,24,A,,,,,,,,,,,,,,joab01,001,2022-02-17_11h23.16.405,RALT_PLD,2020.2.10,Win32,60,,,,,,A,Yes,,,,,,,left,0,1.0197,Congruent,nonsocial,1,0,1,0,1,,,,,,,,,,
A,B,70,B,,,,,,,,,,,,,,joab01,001,2022-02-17_11h23.16.405,RALT_PLD,2020.2.10,Win32,60,,,,,,B,Yes,,,,,,,right,0,1.0935,Incongruent,nonsocial,2,0,2,0,1,,,,,,,,,,
A,B,86,A,,,,,,,,,,,,,,joab01,001,2022-02-17_11h23.16.405,RALT_PLD,2020.2.10,Win32,60,,,,,,A,Yes,,,,,,,left,0,1.526,Congruent,nonsocial,3,0,3,0,1,,,,,,,,,,
,,,,,,,,,,,,,,,,,joab01,001,2022-02-17_11h23.16.405,RALT_PLD,2020.2.10,Win32,60,,,,,,,,,,,,,,,,,,,,,,,,2,0,2,0,1,,,,,
A,B,24,A,,,,,,,,,,,,,,joab01,001,2022-02-17_11h23.16.405,RALT_PLD,2020.2.10,Win32,60,,,,,,A,Yes,,,,,,,left,0,0.8928,Congruent,nonsocial,0,0,0,0,1,,,,,,,,,,
A,B,70,A,,,,,,,,,,,,,,joab01,001,2022-02-17_11h23.16.405,RALT_PLD,2020.2.10,Win32,60,,,,,,B,No,,,,,,,left,0,1.222,,nonsocial,1,0,1,0,1,,,,,,,,,,
A,B,28,B,,,,,,,,,,,,,,joab01,001,2022-02-17_11h23.16.405,RALT_PLD,2020.2.10,Win32,60,,,,,,B,Yes,,,,,,,right,0,1.278,Congruent,nonsocial,2,0,2,0,1,,,,,,,,,,
A,B,86,A,,,,,,,,,,,,,,joab01,001,2022-02-17_11h23.16.405,RALT_PLD,2020.2.10,Win32,60,,,,,,A,Yes,,,,,,,left,0,0.8945,Congruent,nonsocial,3,0,3,0,1,,,,,,,,,,
,,,,,,,,,,,,,,,,,joab01,001,2022-02-17_11h23.16.405,RALT_PLD,2020.2.10,Win32,60,,,,,,,,,,,,,,,,,,,,,,,,3,0,3,0,1,,,,,
A,B,70,A,,,,,,,,,,,,,,joab01,001,2022-02-17_11h23.16.405,RALT_PLD,2020.2.10,Win32,60,,,,,,B,No,,,,,,,left,0,1.1768,,nonsocial,0,0,0,0,1,,,,,,,,,,
A,B,28,B,,,,,,,,,,,,,,joab01,001,2022-02-17_11h23.16.405,RALT_PLD,2020.2.10,Win32,60,,,,,,B,Yes,,,,,,,right,0,0.9023,Incongruent,nonsocial,1,0,1,0,1,,,,,,,,,,
A,B,24,A,,,,,,,,,,,,,,joab01,001,2022-02-17_11h23.16.405,RALT_PLD,2020.2.10,Win32,60,,,,,,A,Yes,,,,,,,left,0,1.0353,Incongruent,nonsocial,2,0,2,0,1,,,,,,,,,,
A,B,86,B,,,,,,,,,,,,,,joab01,001,2022-02-17_11h23.16.405,RALT_PLD,2020.2.10,Win32,60,,,,,,A,No,,,,,,,right,0,1.0796,,nonsocial,3,0,3,0,1,,,,,,,,,,
,,,,,,,,,,,,,,,,,joab01,001,2022-02-17_11h23.16.405,RALT_PLD,2020.2.10,Win32,60,,,,,,,,,,,,,,,,,,,,,,,,4,0,4,0,1,,,,,
B,A,24,A,,,,,,,,,,,,,,joab01,001,2022-02-17_11h23.16.405,RALT_PLD,2020.2.10,Win32,60,,,,,,A,Yes,,,,,,,right,0,0.9618,Incongruent,nonsocial,0,0,0,0,1,,,,,,,,,,
B,A,70,B,,,,,,,,,,,,,,joab01,001,2022-02-17_11h23.16.405,RALT_PLD,2020.2.10,Win32,60,,,,,,B,Yes,,,,,,,left,0,1.9253,Congruent,nonsocial,1,0,1,0,1,,,,,,,,,,
B,A,28,A,,,,,,,,,,,,,,joab01,001,2022-02-17_11h23.16.405,RALT_PLD,2020.2.10,Win32,60,,,,,,B,No,,,,,,,right,0,1.4317,,nonsocial,2,0,2,0,1,,,,,,,,,,
B,A,86,A,,,,,,,,,,,,,,joab01,001,2022-02-17_11h23.16.405,RALT_PLD,2020.2.10,Win32,60,,,,,,A,Yes,,,,,,,right,0,1.1528,Congruent,nonsocial,3,0,3,0,1,,,,,,,,,,
,,,,,,,,,,,,,,,,,joab01,001,2022-02-17_11h23.16.405,RALT_PLD,2020.2.10,Win32,60,,,,,,,,,,,,,,,,,,,,,,,,5,0,5,0,1,,,,,
,,,,,,,,,,,,,,,,,joab01,001,2022-02-17_11h23.16.405,RALT_PLD,2020.2.10,Win32,60,,,,,,,,,,,,,,,,,,,,,,,,,,,,,2,0,2,0,1
B,A,51,B,,,,,,,,,,,,,,joab01,001,2022-02-17_11h23.16.405,RALT_PLD,2020.2.10,Win32,60,,,,,,A,No,,,,,,,left,0,1.1297,,social,0,0,0,0,1,,,,,,,,,,
B,A,83,B,,,,,,,,,,,,,,joab01,001,2022-02-17_11h23.16.405,RALT_PLD,2020.2.10,Win32,60,,,,,,A,No,,,,,,,left,0,1.4201,,social,1,0,1,0,1,,,,,,,,,,
B,A,71,B,,,,,,,,,,,,,,joab01,001,2022-02-17_11h23.16.405,RALT_PLD,2020.2.10,Win32,60,,,,,,B,Yes,,,,,,,left,0,1.1712,Incongruent,social,2,0,2,0,1,,,,,,,,,,
B,A,41,A,,,,,,,,,,,,,,joab01,001,2022-02-17_11h23.16.405,RALT_PLD,2020.2.10,Win32,60,,,,,,B,No,,,,,,,right,0,1.6929,,social,3,0,3,0,1,,,,,,,,,,
,,,,,,,,,,,,,,,,,joab01,001,2022-02-17_11h23.16.405,RALT_PLD,2020.2.10,Win32,60,,,,,,,,,,,,,,,,,,,,,,,,0,0,0,0,1,,,,,
A,B,51,B,,,,,,,,,,,,,,joab01,001,2022-02-17_11h23.16.405,RALT_PLD,2020.2.10,Win32,60,,,,,,A,No,,,,,,,right,0,1.3562,,social,0,0,0,0,1,,,,,,,,,,
A,B,71,A,,,,,,,,,,,,,,joab01,001,2022-02-17_11h23.16.405,RALT_PLD,2020.2.10,Win32,60,,,,,,B,No,,,,,,,left,0,2.2034,,social,1,0,1,0,1,,,,,,,,,,
A,B,83,A,,,,,,,,,,,,,,joab01,001,2022-02-17_11h23.16.405,RALT_PLD,2020.2.10,Win32,60,,,,,,A,Yes,,,,,,,left,0,1.0357,Congruent,social,2,0,2,0,1,,,,,,,,,,
A,B,41,A,,,,,,,,,,,,,,joab01,001,2022-02-17_11h23.16.405,RALT_PLD,2020.2.10,Win32,60,,,,,,B,No,,,,,,,left,0,0.6438,,social,3,0,3,0,1,,,,,,,,,,
,,,,,,,,,,,,,,,,,joab01,001,2022-02-17_11h23.16.405,RALT_PLD,2020.2.10,Win32,60,,,,,,,,,,,,,,,,,,,,,,,,1,0,1,0,1,,,,,
B,A,83,A,,,,,,,,,,,,,,joab01,001,2022-02-17_11h23.16.405,RALT_PLD,2020.2.10,Win32,60,,,,,,A,Yes,,,,,,,right,0,1.5235,Congruent,social,0,0,0,0,1,,,,,,,,,,
B,A,41,B,,,,,,,,,,,,,,joab01,001,2022-02-17_11h23.16.405,RALT_PLD,2020.2.10,Win32,60,,,,,,B,Yes,,,,,,,left,0,0.7388,Congruent,social,1,0,1,0,1,,,,,,,,,,
B,A,71,A,,,,,,,,,,,,,,joab01,001,2022-02-17_11h23.16.405,RALT_PLD,2020.2.10,Win32,60,,,,,,B,No,,,,,,,right,0,1.1051,,social,2,0,2,0,1,,,,,,,,,,
B,A,51,A,,,,,,,,,,,,,,joab01,001,2022-02-17_11h23.16.405,RALT_PLD,2020.2.10,Win32,60,,,,,,A,Yes,,,,,,,right,0,1.6056,Congruent,social,3,0,3,0,1,,,,,,,,,,
,,,,,,,,,,,,,,,,,joab01,001,2022-02-17_11h23.16.405,RALT_PLD,2020.2.10,Win32,60,,,,,,,,,,,,,,,,,,,,,,,,2,0,2,0,1,,,,,
A,B,41,A,,,,,,,,,,,,,,joab01,001,2022-02-17_11h23.16.405,RALT_PLD,2020.2.10,Win32,60,,,,,,B,No,,,,,,,left,0,1.096,,social,0,0,0,0,1,,,,,,,,,,
A,B,51,B,,,,,,,,,,,,,,joab01,001,2022-02-17_11h23.16.405,RALT_PLD,2020.2.10,Win32,60,,,,,,A,No,,,,,,,right,0,1.7897,,social,1,0,1,0,1,,,,,,,,,,
A,B,71,A,,,,,,,,,,,,,,joab01,001,2022-02-17_11h23.16.405,RALT_PLD,2020.2.10,Win32,60,,,,,,B,No,,,,,,,left,0,1.3902,,social,2,0,2,0,1,,,,,,,,,,
A,B,83,A,,,,,,,,,,,,,,joab01,001,2022-02-17_11h23.16.405,RALT_PLD,2020.2.10,Win32,60,,,,,,A,Yes,,,,,,,left,0,0.5848,Congruent,social,3,0,3,0,1,,,,,,,,,,
,,,,,,,,,,,,,,,,,joab01,001,2022-02-17_11h23.16.405,RALT_PLD,2020.2.10,Win32,60,,,,,,,,,,,,,,,,,,,,,,,,3,0,3,0,1,,,,,
B,A,51,A,,,,,,,,,,,,,,joab01,001,2022-02-17_11h23.16.405,RALT_PLD,2020.2.10,Win32,60,,,,,,A,Yes,,,,,,,right,0,1.4927,Congruent,social,0,0,0,0,1,,,,,,,,,,
B,A,41,B,,,,,,,,,,,,,,joab01,001,2022-02-17_11h23.16.405,RALT_PLD,2020.2.10,Win32,60,,,,,,B,Yes,,,,,,,left,0,1.0674,Incongruent,social,1,0,1,0,1,,,,,,,,,,
B,A,71,A,,,,,,,,,,,,,,joab01,001,2022-02-17_11h23.16.405,RALT_PLD,2020.2.10,Win32,60,,,,,,B,No,,,,,,,right,0,0.6343,,social,2,0,2,0,1,,,,,,,,,,
B,A,83,A,,,,,,,,,,,,,,joab01,001,2022-02-17_11h23.16.405,RALT_PLD,2020.2.10,Win32,60,,,,,,A,Yes,,,,,,,right,0,1.3422,Incongruent,social,3,0,3,0,1,,,,,,,,,,
,,,,,,,,,,,,,,,,,joab01,001,2022-02-17_11h23.16.405,RALT_PLD,2020.2.10,Win32,60,,,,,,,,,,,,,,,,,,,,,,,,4,0,4,0,1,,,,,
B,A,41,B,,,,,,,,,,,,,,joab01,001,2022-02-17_11h23.16.405,RALT_PLD,2020.2.10,Win32,60,,,,,,B,Yes,,,,,,,left,0,0.9698,Congruent,social,0,0,0,0,1,,,,,,,,,,
B,A,51,A,,,,,,,,,,,,,,joab01,001,2022-02-17_11h23.16.405,RALT_PLD,2020.2.10,Win32,60,,,,,,A,Yes,,,,,,,right,0,1.3862,Congruent,social,1,0,1,0,1,,,,,,,,,,
B,A,83,B,,,,,,,,,,,,,,joab01,001,2022-02-17_11h23.16.405,RALT_PLD,2020.2.10,Win32,60,,,,,,A,No,,,,,,,left,0,1.0444,,social,2,0,2,0,1,,,,,,,,,,
B,A,71,A,,,,,,,,,,,,,,joab01,001,2022-02-17_11h23.16.405,RALT_PLD,2020.2.10,Win32,60,,,,,,B,No,,,,,,,right,0,1.1042,,social,3,0,3,0,1,,,,,,,,,,
,,,,,,,,,,,,,,,,,joab01,001,2022-02-17_11h23.16.405,RALT_PLD,2020.2.10,Win32,60,,,,,,,,,,,,,,,,,,,,,,,,5,0,5,0,1,,,,,
,,,,,,,,,,,,,,,,,joab01,001,2022-02-17_11h23.16.405,RALT_PLD,2020.2.10,Win32,60,,,,,,,,,,,,,,,,,,,,,,,,,,,,,3,0,3,0,1
