left,right,stim,response_training.keys,response_training.corr,training_social.thisRepN,training_social.thisTrialN,training_social.thisN,training_social.thisIndex,training_social.ran,Stim,filename_neutral,filename_feedback_happy,filename_feedback_angry,CorrCatTrain,participant,session,date,expName,psychopyVersion,OS,frameRate,ParticipantAnswer,response_training.rt,training_nonsocial.thisRepN,training_nonsocial.thisTrialN,training_nonsocial.thisN,training_nonsocial.thisIndex,training_nonsocial.ran,CorrCat,CorrectAns,prob_fb.thisRepN,prob_fb.thisTrialN,prob_fb.thisN,prob_fb.thisIndex,prob_fb.ran,CorrCatProb,response_training_2.keys,response_training_2.corr,response_training_2.rt,Congr/Incongr,Reward,BlockType,trials.thisRepN,trials.thisTrialN,trials.thisN,trials.thisIndex,trials.ran,cycles.thisRepN,cycles.thisTrialN,cycles.thisN,cycles.thisIndex,cycles.ran,blocks.thisRepN,blocks.thisTrialN,blocks.thisN,blocks.thisIndex,blocks.ran
A,B,38,,0,0,0,0,3,1,38,Stimuli/neutral/Still.jpg,Stimuli/social/happy/M02-Happy Man.mp4,Stimuli/social/angry/M06-Angry Man.mp4,B,leal92,001,2022-04-22_15h10.50.473,RALT_PLD,2020.2.10,Win32,60,,,,,,,,,,,,,,,,,,,,,,,,,,,,,,,,,,,,
A,B,38,left,0,0,1,1,1,1,38,Stimuli/neutral/Still.jpg,Stimuli/social/happy/M02-Happy Man.mp4,Stimuli/social/angry/M06-Angry Man.mp4,A,leal92,001,2022-04-22_15h10.50.473,RALT_PLD,2020.2.10,Win32,60,A,0.9889,,,,,,,,,,,,,,,,,,,,,,,,,,,,,,,,,,
A,B,91,right,0,0,2,2,2,1,91,Stimuli/neutral/Still.jpg,Stimuli/social/happy/F01-Happy Women.mp4,Stimuli/social/angry/F04-Angry Women.mp4,B,leal92,001,2022-04-22_15h10.50.473,RALT_PLD,2020.2.10,Win32,60,B,4.1469,,,,,,,,,,,,,,,,,,,,,,,,,,,,,,,,,,
A,B,99,right,0,0,3,3,0,1,99,Stimuli/neutral/Still.jpg,Stimuli/social/happy/F01-Happy Women.mp4,Stimuli/social/angry/F04-Angry Women.mp4,A,leal92,001,2022-04-22_15h10.50.473,RALT_PLD,2020.2.10,Win32,60,B,3.1678,,,,,,,,,,,,,,,,,,,,,,,,,,,,,,,,,,
A,B,43,right,0,,,,,,43,Stimuli/neutral/Still.jpg,Stimuli/nonsocial/Right Tick.mp4,Stimuli/nonsocial/Wrong Tick.mp4,A,leal92,001,2022-04-22_15h10.50.473,RALT_PLD,2020.2.10,Win32,60,B,2.7623,0,0,0,2,1,,,,,,,,,,,,,,,,,,,,,,,,,,,,,
A,B,53,right,0,,,,,,53,Stimuli/neutral/Still.jpg,Stimuli/nonsocial/Right Tick.mp4,Stimuli/nonsocial/Wrong Tick.mp4,A,leal92,001,2022-04-22_15h10.50.473,RALT_PLD,2020.2.10,Win32,60,B,4.6547,0,1,1,1,1,,,,,,,,,,,,,,,,,,,,,,,,,,,,,
A,B,39,right,0,,,,,,39,Stimuli/neutral/Still.jpg,Stimuli/nonsocial/Right Tick.mp4,Stimuli/nonsocial/Wrong Tick.mp4,B,leal92,001,2022-04-22_15h10.50.473,RALT_PLD,2020.2.10,Win32,60,B,3.6745,0,2,2,3,1,,,,,,,,,,,,,,,,,,,,,,,,,,,,,
A,B,98,right,0,,,,,,98,Stimuli/neutral/Still.jpg,Stimuli/nonsocial/Right Tick.mp4,Stimuli/nonsocial/Wrong Tick.mp4,B,leal92,001,2022-04-22_15h10.50.473,RALT_PLD,2020.2.10,Win32,60,B,5.5837,0,3,3,0,1,,,,,,,,,,,,,,,,,,,,,,,,,,,,,
A,B,38,,0,,,,,,38,Stimuli/neutral/Still.jpg,Stimuli/social/happy/M02-Happy Man.mp4,Stimuli/social/angry/M06-Angry Man.mp4,,leal92,001,2022-04-22_15h10.50.473,RALT_PLD,2020.2.10,Win32,60,,,,,,,,"[[""B"",""B"",""A"",""A""],[""A"",""B"",""B"",""A""]]",No,0,0,0,1,1,A,,,,,,,,,,,,,,,,,,,,,
A,B,38,left,0,,,,,,38,Stimuli/neutral/Still.jpg,Stimuli/social/happy/M02-Happy Man.mp4,Stimuli/social/angry/M06-Angry Man.mp4,,leal92,001,2022-04-22_15h10.50.473,RALT_PLD,2020.2.10,Win32,60,A,1.2762,,,,,,"[[""B"",""B"",""A"",""A""],[""A"",""B"",""B"",""A""]]",No,0,1,1,3,1,B,,,,,,,,,,,,,,,,,,,,,
A,B,91,right,0,,,,,,91,Stimuli/neutral/Still.jpg,Stimuli/social/happy/F01-Happy Women.mp4,Stimuli/social/angry/F04-Angry Women.mp4,,leal92,001,2022-04-22_15h10.50.473,RALT_PLD,2020.2.10,Win32,60,B,2.3776,,,,,,"[[""B"",""B"",""A"",""A""],[""A"",""B"",""B"",""A""]]",Yes,0,2,2,2,1,B,,,,,,,,,,,,,,,,,,,,,
A,B,99,left,0,,,,,,99,Stimuli/neutral/Still.jpg,Stimuli/social/happy/F01-Happy Women.mp4,Stimuli/social/angry/F04-Angry Women.mp4,,leal92,001,2022-04-22_15h10.50.473,RALT_PLD,2020.2.10,Win32,60,A,3.2948,,,,,,"[[""B"",""B"",""A"",""A""],[""A"",""B"",""B"",""A""]]",Yes,0,3,3,0,1,A,,,,,,,,,,,,,,,,,,,,,
B,A,28,,,,,,,,,,,,,leal92,001,2022-04-22_15h10.50.473,RALT_PLD,2020.2.10,Win32,60,B,,,,,,,A,No,,,,,,,left,0,5.5528,Congruent,0,nonsocial,0,0,0,0,1,,,,,,,,,,
B,A,34,,,,,,,,,,,,,leal92,001,2022-04-22_15h10.50.473,RALT_PLD,2020.2.10,Win32,60,A,,,,,,,B,No,,,,,,,right,0,2.2278,Congruent,0,nonsocial,1,0,1,0,1,,,,,,,,,,
B,A,84,,,,,,,,,,,,,leal92,001,2022-04-22_15h10.50.473,RALT_PLD,2020.2.10,Win32,60,A,,,,,,,B,No,,,,,,,right,0,0.6427,Congruent,0,nonsocial,2,0,2,0,1,,,,,,,,,,
B,A,16,,,,,,,,,,,,,leal92,001,2022-04-22_15h10.50.473,RALT_PLD,2020.2.10,Win32,60,A,,,,,,,A,Yes,,,,,,,right,0,1.2698,Congruent,1,nonsocial,3,0,3,0,1,,,,,,,,,,
,,,,,,,,,,,,,,,leal92,001,2022-04-22_15h10.50.473,RALT_PLD,2020.2.10,Win32,60,,,,,,,,,,,,,,,,,,,,,,,,,,,0,0,0,0,1,,,,,
B,A,28,,,,,,,,,,,,,leal92,001,2022-04-22_15h10.50.473,RALT_PLD,2020.2.10,Win32,60,A,,,,,,,A,Yes,,,,,,,right,0,3.3239,Congruent,1,nonsocial,0,0,0,0,1,,,,,,,,,,
B,A,16,,,,,,,,,,,,,leal92,001,2022-04-22_15h10.50.473,RALT_PLD,2020.2.10,Win32,60,A,,,,,,,A,Yes,,,,,,,right,0,0.6733,Incongruent,0,nonsocial,1,0,1,0,1,,,,,,,,,,
B,A,84,,,,,,,,,,,,,leal92,001,2022-04-22_15h10.50.473,RALT_PLD,2020.2.10,Win32,60,B,,,,,,,B,Yes,,,,,,,left,0,2.3675,Incongruent,0,nonsocial,2,0,2,0,1,,,,,,,,,,
B,A,34,,,,,,,,,,,,,leal92,001,2022-04-22_15h10.50.473,RALT_PLD,2020.2.10,Win32,60,A,,,,,,,B,No,,,,,,,right,0,0.8315,Congruent,0,nonsocial,3,0,3,0,1,,,,,,,,,,
,,,,,,,,,,,,,,,leal92,001,2022-04-22_15h10.50.473,RALT_PLD,2020.2.10,Win32,60,,,,,,,,,,,,,,,,,,,,,,,,,,,1,0,1,0,1,,,,,
A,B,34,,,,,,,,,,,,,leal92,001,2022-04-22_15h10.50.473,RALT_PLD,2020.2.10,Win32,60,B,,,,,,,B,Yes,,,,,,,right,0,4.4365,Congruent,1,nonsocial,0,0,0,0,1,,,,,,,,,,
A,B,16,,,,,,,,,,,,,leal92,001,2022-04-22_15h10.50.473,RALT_PLD,2020.2.10,Win32,60,A,,,,,,,A,Yes,,,,,,,left,0,3.6952,Congruent,1,nonsocial,1,0,1,0,1,,,,,,,,,,
A,B,84,,,,,,,,,,,,,leal92,001,2022-04-22_15h10.50.473,RALT_PLD,2020.2.10,Win32,60,A,,,,,,,B,No,,,,,,,left,0,2.9499,Congruent,0,nonsocial,2,0,2,0,1,,,,,,,,,,
A,B,28,,,,,,,,,,,,,leal92,001,2022-04-22_15h10.50.473,RALT_PLD,2020.2.10,Win32,60,B,,,,,,,A,No,,,,,,,right,0,4.7212,Congruent,0,nonsocial,3,0,3,0,1,,,,,,,,,,
,,,,,,,,,,,,,,,leal92,001,2022-04-22_15h10.50.473,RALT_PLD,2020.2.10,Win32,60,,,,,,,,,,,,,,,,,,,,,,,,,,,2,0,2,0,1,,,,,
A,B,84,,,,,,,,,,,,,leal92,001,2022-04-22_15h10.50.473,RALT_PLD,2020.2.10,Win32,60,B,,,,,,,B,Yes,,,,,,,right,0,2.7873,Congruent,1,nonsocial,0,0,0,0,1,,,,,,,,,,
A,B,28,,,,,,,,,,,,,leal92,001,2022-04-22_15h10.50.473,RALT_PLD,2020.2.10,Win32,60,A,,,,,,,A,Yes,,,,,,,left,0,0.9146,Congruent,1,nonsocial,1,0,1,0,1,,,,,,,,,,
A,B,16,,,,,,,,,,,,,leal92,001,2022-04-22_15h10.50.473,RALT_PLD,2020.2.10,Win32,60,A,,,,,,,A,Yes,,,,,,,left,0,3.3533,Congruent,1,nonsocial,2,0,2,0,1,,,,,,,,,,
A,B,34,,,,,,,,,,,,,leal92,001,2022-04-22_15h10.50.473,RALT_PLD,2020.2.10,Win32,60,,,,,,,,B,No,,,,,,,,0,,Congruent,0,nonsocial,3,0,3,0,1,,,,,,,,,,
,,,,,,,,,,,,,,,leal92,001,2022-04-22_15h10.50.473,RALT_PLD,2020.2.10,Win32,60,,,,,,,,,,,,,,,,,,,,,,,,,,,3,0,3,0,1,,,,,
A,B,84,,,,,,,,,,,,,leal92,001,2022-04-22_15h10.50.473,RALT_PLD,2020.2.10,Win32,60,B,,,,,,,B,Yes,,,,,,,right,0,2.5033,Incongruent,0,nonsocial,0,0,0,0,1,,,,,,,,,,
A,B,16,,,,,,,,,,,,,leal92,001,2022-04-22_15h10.50.473,RALT_PLD,2020.2.10,Win32,60,A,,,,,,,A,Yes,,,,,,,left,0,1.5461,Congruent,1,nonsocial,1,0,1,0,1,,,,,,,,,,
A,B,28,,,,,,,,,,,,,leal92,001,2022-04-22_15h10.50.473,RALT_PLD,2020.2.10,Win32,60,B,,,,,,,A,No,,,,,,,right,0,3.0339,Incongruent,1,nonsocial,2,0,2,0,1,,,,,,,,,,
A,B,34,,,,,,,,,,,,,leal92,001,2022-04-22_15h10.50.473,RALT_PLD,2020.2.10,Win32,60,A,,,,,,,B,No,,,,,,,left,0,2.342,Congruent,0,nonsocial,3,0,3,0,1,,,,,,,,,,
,,,,,,,,,,,,,,,leal92,001,2022-04-22_15h10.50.473,RALT_PLD,2020.2.10,Win32,60,,,,,,,,,,,,,,,,,,,,,,,,,,,4,0,4,0,1,,,,,
A,B,16,,,,,,,,,,,,,leal92,001,2022-04-22_15h10.50.473,RALT_PLD,2020.2.10,Win32,60,A,,,,,,,A,Yes,,,,,,,left,0,1.4986,Congruent,1,nonsocial,0,0,0,0,1,,,,,,,,,,
A,B,28,,,,,,,,,,,,,leal92,001,2022-04-22_15h10.50.473,RALT_PLD,2020.2.10,Win32,60,B,,,,,,,A,No,,,,,,,right,0,1.5981,Congruent,0,nonsocial,1,0,1,0,1,,,,,,,,,,
A,B,84,,,,,,,,,,,,,leal92,001,2022-04-22_15h10.50.473,RALT_PLD,2020.2.10,Win32,60,B,,,,,,,B,Yes,,,,,,,right,0,2.1769,Congruent,1,nonsocial,2,0,2,0,1,,,,,,,,,,
A,B,34,,,,,,,,,,,,,leal92,001,2022-04-22_15h10.50.473,RALT_PLD,2020.2.10,Win32,60,A,,,,,,,B,No,,,,,,,left,0,3.3922,Congruent,0,nonsocial,3,0,3,0,1,,,,,,,,,,
,,,,,,,,,,,,,,,leal92,001,2022-04-22_15h10.50.473,RALT_PLD,2020.2.10,Win32,60,,,,,,,,,,,,,,,,,,,,,,,,,,,5,0,5,0,1,,,,,
,,,,,,,,,,,,,,,leal92,001,2022-04-22_15h10.50.473,RALT_PLD,2020.2.10,Win32,60,,,,,,,,,,,,,,,,,,,,,,,,,,,,,,,,0,0,0,0,1
A,B,65,,,,,,,,,,,,,leal92,001,2022-04-22_15h10.50.473,RALT_PLD,2020.2.10,Win32,60,B,,,,,,,B,Yes,,,,,,,right,0,2.6292,Congruent,1,social,0,0,0,0,1,,,,,,,,,,
A,B,29,,,,,,,,,,,,,leal92,001,2022-04-22_15h10.50.473,RALT_PLD,2020.2.10,Win32,60,A,,,,,,,A,Yes,,,,,,,left,0,1.4585,Congruent,1,social,1,0,1,0,1,,,,,,,,,,
A,B,41,,,,,,,,,,,,,leal92,001,2022-04-22_15h10.50.473,RALT_PLD,2020.2.10,Win32,60,B,,,,,,,A,No,,,,,,,right,0,1.6751,Congruent,0,social,2,0,2,0,1,,,,,,,,,,
A,B,75,,,,,,,,,,,,,leal92,001,2022-04-22_15h10.50.473,RALT_PLD,2020.2.10,Win32,60,B,,,,,,,B,Yes,,,,,,,right,0,1.0001,Congruent,1,social,3,0,3,0,1,,,,,,,,,,
,,,,,,,,,,,,,,,leal92,001,2022-04-22_15h10.50.473,RALT_PLD,2020.2.10,Win32,60,,,,,,,,,,,,,,,,,,,,,,,,,,,0,0,0,0,1,,,,,
B,A,29,,,,,,,,,,,,,leal92,001,2022-04-22_15h10.50.473,RALT_PLD,2020.2.10,Win32,60,B,,,,,,,A,No,,,,,,,left,0,1.1316,Congruent,0,social,0,0,0,0,1,,,,,,,,,,
B,A,65,,,,,,,,,,,,,leal92,001,2022-04-22_15h10.50.473,RALT_PLD,2020.2.10,Win32,60,A,,,,,,,B,No,,,,,,,right,0,0.4237,Congruent,0,social,1,0,1,0,1,,,,,,,,,,
B,A,75,,,,,,,,,,,,,leal92,001,2022-04-22_15h10.50.473,RALT_PLD,2020.2.10,Win32,60,A,,,,,,,B,No,,,,,,,right,0,3.2511,Incongruent,1,social,2,0,2,0,1,,,,,,,,,,
B,A,41,,,,,,,,,,,,,leal92,001,2022-04-22_15h10.50.473,RALT_PLD,2020.2.10,Win32,60,B,,,,,,,A,No,,,,,,,left,0,1.5949,Incongruent,1,social,3,0,3,0,1,,,,,,,,,,
,,,,,,,,,,,,,,,leal92,001,2022-04-22_15h10.50.473,RALT_PLD,2020.2.10,Win32,60,,,,,,,,,,,,,,,,,,,,,,,,,,,1,0,1,0,1,,,,,
B,A,75,,,,,,,,,,,,,leal92,001,2022-04-22_15h10.50.473,RALT_PLD,2020.2.10,Win32,60,A,,,,,,,B,No,,,,,,,right,0,2.1609,Congruent,0,social,0,0,0,0,1,,,,,,,,,,
B,A,29,,,,,,,,,,,,,leal92,001,2022-04-22_15h10.50.473,RALT_PLD,2020.2.10,Win32,60,A,,,,,,,A,Yes,,,,,,,right,0,1.2151,Congruent,1,social,1,0,1,0,1,,,,,,,,,,
B,A,65,,,,,,,,,,,,,leal92,001,2022-04-22_15h10.50.473,RALT_PLD,2020.2.10,Win32,60,B,,,,,,,B,Yes,,,,,,,left,0,0.8709,Congruent,1,social,2,0,2,0,1,,,,,,,,,,
B,A,41,,,,,,,,,,,,,leal92,001,2022-04-22_15h10.50.473,RALT_PLD,2020.2.10,Win32,60,A,,,,,,,A,Yes,,,,,,,right,0,0.9552,Congruent,1,social,3,0,3,0,1,,,,,,,,,,
,,,,,,,,,,,,,,,leal92,001,2022-04-22_15h10.50.473,RALT_PLD,2020.2.10,Win32,60,,,,,,,,,,,,,,,,,,,,,,,,,,,2,0,2,0,1,,,,,
B,A,41,,,,,,,,,,,,,leal92,001,2022-04-22_15h10.50.473,RALT_PLD,2020.2.10,Win32,60,B,,,,,,,A,No,,,,,,,left,0,0.4855,Congruent,0,social,0,0,0,0,1,,,,,,,,,,
B,A,29,,,,,,,,,,,,,leal92,001,2022-04-22_15h10.50.473,RALT_PLD,2020.2.10,Win32,60,A,,,,,,,A,Yes,,,,,,,right,0,0.9913,Congruent,1,social,1,0,1,0,1,,,,,,,,,,
B,A,65,,,,,,,,,,,,,leal92,001,2022-04-22_15h10.50.473,RALT_PLD,2020.2.10,Win32,60,B,,,,,,,B,Yes,,,,,,,left,0,0.5362,Congruent,1,social,2,0,2,0,1,,,,,,,,,,
B,A,75,,,,,,,,,,,,,leal92,001,2022-04-22_15h10.50.473,RALT_PLD,2020.2.10,Win32,60,B,,,,,,,B,Yes,,,,,,,left,0,0.7929,Congruent,1,social,3,0,3,0,1,,,,,,,,,,
,,,,,,,,,,,,,,,leal92,001,2022-04-22_15h10.50.473,RALT_PLD,2020.2.10,Win32,60,,,,,,,,,,,,,,,,,,,,,,,,,,,3,0,3,0,1,,,,,
B,A,65,,,,,,,,,,,,,leal92,001,2022-04-22_15h10.50.473,RALT_PLD,2020.2.10,Win32,60,A,,,,,,,B,No,,,,,,,right,0,0.4225,Incongruent,1,social,0,0,0,0,1,,,,,,,,,,
B,A,41,,,,,,,,,,,,,leal92,001,2022-04-22_15h10.50.473,RALT_PLD,2020.2.10,Win32,60,B,,,,,,,A,No,,,,,,,left,0,1.037,Incongruent,1,social,1,0,1,0,1,,,,,,,,,,
B,A,29,,,,,,,,,,,,,leal92,001,2022-04-22_15h10.50.473,RALT_PLD,2020.2.10,Win32,60,A,,,,,,,A,Yes,,,,,,,right,0,0.4765,Congruent,1,social,2,0,2,0,1,,,,,,,,,,
B,A,75,,,,,,,,,,,,,leal92,001,2022-04-22_15h10.50.473,RALT_PLD,2020.2.10,Win32,60,B,,,,,,,B,Yes,,,,,,,left,0,0.4521,Congruent,1,social,3,0,3,0,1,,,,,,,,,,
,,,,,,,,,,,,,,,leal92,001,2022-04-22_15h10.50.473,RALT_PLD,2020.2.10,Win32,60,,,,,,,,,,,,,,,,,,,,,,,,,,,4,0,4,0,1,,,,,
B,A,65,,,,,,,,,,,,,leal92,001,2022-04-22_15h10.50.473,RALT_PLD,2020.2.10,Win32,60,A,,,,,,,B,No,,,,,,,right,0,0.488,Congruent,0,social,0,0,0,0,1,,,,,,,,,,
B,A,75,,,,,,,,,,,,,leal92,001,2022-04-22_15h10.50.473,RALT_PLD,2020.2.10,Win32,60,B,,,,,,,B,Yes,,,,,,,left,0,0.3635,Congruent,1,social,1,0,1,0,1,,,,,,,,,,
B,A,41,,,,,,,,,,,,,leal92,001,2022-04-22_15h10.50.473,RALT_PLD,2020.2.10,Win32,60,A,,,,,,,A,Yes,,,,,,,right,0,1.082,Congruent,1,social,2,0,2,0,1,,,,,,,,,,
B,A,29,,,,,,,,,,,,,leal92,001,2022-04-22_15h10.50.473,RALT_PLD,2020.2.10,Win32,60,A,,,,,,,A,Yes,,,,,,,right,0,0.5351,Congruent,1,social,3,0,3,0,1,,,,,,,,,,
,,,,,,,,,,,,,,,leal92,001,2022-04-22_15h10.50.473,RALT_PLD,2020.2.10,Win32,60,,,,,,,,,,,,,,,,,,,,,,,,,,,5,0,5,0,1,,,,,
,,,,,,,,,,,,,,,leal92,001,2022-04-22_15h10.50.473,RALT_PLD,2020.2.10,Win32,60,,,,,,,,,,,,,,,,,,,,,,,,,,,,,,,,1,0,1,0,1
A,B,34,,,,,,,,,,,,,leal92,001,2022-04-22_15h10.50.473,RALT_PLD,2020.2.10,Win32,60,B,,,,,,,B,Yes,,,,,,,right,0,0.7722,Congruent,1,nonsocial,0,0,0,0,1,,,,,,,,,,
A,B,28,,,,,,,,,,,,,leal92,001,2022-04-22_15h10.50.473,RALT_PLD,2020.2.10,Win32,60,B,,,,,,,A,No,,,,,,,right,0,3.6529,Congruent,0,nonsocial,1,0,1,0,1,,,,,,,,,,
A,B,84,,,,,,,,,,,,,leal92,001,2022-04-22_15h10.50.473,RALT_PLD,2020.2.10,Win32,60,B,,,,,,,B,Yes,,,,,,,right,0,1.6392,Congruent,1,nonsocial,2,0,2,0,1,,,,,,,,,,
A,B,16,,,,,,,,,,,,,leal92,001,2022-04-22_15h10.50.473,RALT_PLD,2020.2.10,Win32,60,A,,,,,,,A,Yes,,,,,,,left,0,2.2585,Congruent,1,nonsocial,3,0,3,0,1,,,,,,,,,,
,,,,,,,,,,,,,,,leal92,001,2022-04-22_15h10.50.473,RALT_PLD,2020.2.10,Win32,60,,,,,,,,,,,,,,,,,,,,,,,,,,,0,0,0,0,1,,,,,
A,B,28,,,,,,,,,,,,,leal92,001,2022-04-22_15h10.50.473,RALT_PLD,2020.2.10,Win32,60,A,,,,,,,A,Yes,,,,,,,left,0,5.1526,Congruent,1,nonsocial,0,0,0,0,1,,,,,,,,,,
A,B,84,,,,,,,,,,,,,leal92,001,2022-04-22_15h10.50.473,RALT_PLD,2020.2.10,Win32,60,B,,,,,,,B,Yes,,,,,,,right,0,0.9015,Incongruent,0,nonsocial,1,0,1,0,1,,,,,,,,,,
A,B,34,,,,,,,,,,,,,leal92,001,2022-04-22_15h10.50.473,RALT_PLD,2020.2.10,Win32,60,B,,,,,,,B,Yes,,,,,,,right,0,3.0845,Congruent,1,nonsocial,2,0,2,0,1,,,,,,,,,,
A,B,16,,,,,,,,,,,,,leal92,001,2022-04-22_15h10.50.473,RALT_PLD,2020.2.10,Win32,60,A,,,,,,,A,Yes,,,,,,,left,0,0.964,Congruent,1,nonsocial,3,0,3,0,1,,,,,,,,,,
,,,,,,,,,,,,,,,leal92,001,2022-04-22_15h10.50.473,RALT_PLD,2020.2.10,Win32,60,,,,,,,,,,,,,,,,,,,,,,,,,,,1,0,1,0,1,,,,,
B,A,34,,,,,,,,,,,,,leal92,001,2022-04-22_15h10.50.473,RALT_PLD,2020.2.10,Win32,60,B,,,,,,,B,Yes,,,,,,,left,0,2.6885,Congruent,1,nonsocial,0,0,0,0,1,,,,,,,,,,
B,A,28,,,,,,,,,,,,,leal92,001,2022-04-22_15h10.50.473,RALT_PLD,2020.2.10,Win32,60,A,,,,,,,A,Yes,,,,,,,right,0,3.3922,Congruent,1,nonsocial,1,0,1,0,1,,,,,,,,,,
B,A,16,,,,,,,,,,,,,leal92,001,2022-04-22_15h10.50.473,RALT_PLD,2020.2.10,Win32,60,A,,,,,,,A,Yes,,,,,,,right,0,0.8697,Congruent,1,nonsocial,2,0,2,0,1,,,,,,,,,,
B,A,84,,,,,,,,,,,,,leal92,001,2022-04-22_15h10.50.473,RALT_PLD,2020.2.10,Win32,60,B,,,,,,,B,Yes,,,,,,,left,0,1.0398,Congruent,1,nonsocial,3,0,3,0,1,,,,,,,,,,
,,,,,,,,,,,,,,,leal92,001,2022-04-22_15h10.50.473,RALT_PLD,2020.2.10,Win32,60,,,,,,,,,,,,,,,,,,,,,,,,,,,2,0,2,0,1,,,,,
B,A,84,,,,,,,,,,,,,leal92,001,2022-04-22_15h10.50.473,RALT_PLD,2020.2.10,Win32,60,B,,,,,,,B,Yes,,,,,,,left,0,1.1123,Congruent,1,nonsocial,0,0,0,0,1,,,,,,,,,,
B,A,28,,,,,,,,,,,,,leal92,001,2022-04-22_15h10.50.473,RALT_PLD,2020.2.10,Win32,60,A,,,,,,,A,Yes,,,,,,,right,0,1.1778,Congruent,1,nonsocial,1,0,1,0,1,,,,,,,,,,
B,A,34,,,,,,,,,,,,,leal92,001,2022-04-22_15h10.50.473,RALT_PLD,2020.2.10,Win32,60,B,,,,,,,B,Yes,,,,,,,left,0,1.1919,Congruent,1,nonsocial,2,0,2,0,1,,,,,,,,,,
B,A,16,,,,,,,,,,,,,leal92,001,2022-04-22_15h10.50.473,RALT_PLD,2020.2.10,Win32,60,A,,,,,,,A,Yes,,,,,,,right,0,0.7446,Congruent,1,nonsocial,3,0,3,0,1,,,,,,,,,,
,,,,,,,,,,,,,,,leal92,001,2022-04-22_15h10.50.473,RALT_PLD,2020.2.10,Win32,60,,,,,,,,,,,,,,,,,,,,,,,,,,,3,0,3,0,1,,,,,
A,B,84,,,,,,,,,,,,,leal92,001,2022-04-22_15h10.50.473,RALT_PLD,2020.2.10,Win32,60,B,,,,,,,B,Yes,,,,,,,right,0,1.8691,Congruent,1,nonsocial,0,0,0,0,1,,,,,,,,,,
A,B,34,,,,,,,,,,,,,leal92,001,2022-04-22_15h10.50.473,RALT_PLD,2020.2.10,Win32,60,B,,,,,,,B,Yes,,,,,,,right,0,1.7125,Congruent,1,nonsocial,1,0,1,0,1,,,,,,,,,,
A,B,28,,,,,,,,,,,,,leal92,001,2022-04-22_15h10.50.473,RALT_PLD,2020.2.10,Win32,60,A,,,,,,,A,Yes,,,,,,,left,0,2.1055,Congruent,1,nonsocial,2,0,2,0,1,,,,,,,,,,
A,B,16,,,,,,,,,,,,,leal92,001,2022-04-22_15h10.50.473,RALT_PLD,2020.2.10,Win32,60,A,,,,,,,A,Yes,,,,,,,left,0,0.8412,Congruent,1,nonsocial,3,0,3,0,1,,,,,,,,,,
,,,,,,,,,,,,,,,leal92,001,2022-04-22_15h10.50.473,RALT_PLD,2020.2.10,Win32,60,,,,,,,,,,,,,,,,,,,,,,,,,,,4,0,4,0,1,,,,,
A,B,34,,,,,,,,,,,,,leal92,001,2022-04-22_15h10.50.473,RALT_PLD,2020.2.10,Win32,60,B,,,,,,,B,Yes,,,,,,,right,0,1.2411,Congruent,1,nonsocial,0,0,0,0,1,,,,,,,,,,
A,B,16,,,,,,,,,,,,,leal92,001,2022-04-22_15h10.50.473,RALT_PLD,2020.2.10,Win32,60,A,,,,,,,A,Yes,,,,,,,left,0,0.6214,Congruent,1,nonsocial,1,0,1,0,1,,,,,,,,,,
A,B,28,,,,,,,,,,,,,leal92,001,2022-04-22_15h10.50.473,RALT_PLD,2020.2.10,Win32,60,A,,,,,,,A,Yes,,,,,,,left,0,3.2043,Congruent,1,nonsocial,2,0,2,0,1,,,,,,,,,,
A,B,84,,,,,,,,,,,,,leal92,001,2022-04-22_15h10.50.473,RALT_PLD,2020.2.10,Win32,60,B,,,,,,,B,Yes,,,,,,,right,0,1.0868,Congruent,1,nonsocial,3,0,3,0,1,,,,,,,,,,
,,,,,,,,,,,,,,,leal92,001,2022-04-22_15h10.50.473,RALT_PLD,2020.2.10,Win32,60,,,,,,,,,,,,,,,,,,,,,,,,,,,5,0,5,0,1,,,,,
,,,,,,,,,,,,,,,leal92,001,2022-04-22_15h10.50.473,RALT_PLD,2020.2.10,Win32,60,,,,,,,,,,,,,,,,,,,,,,,,,,,,,,,,2,0,2,0,1
A,B,65,,,,,,,,,,,,,leal92,001,2022-04-22_15h10.50.473,RALT_PLD,2020.2.10,Win32,60,A,,,,,,,B,No,,,,,,,left,0,3.1062,Congruent,0,social,0,0,0,0,1,,,,,,,,,,
A,B,41,,,,,,,,,,,,,leal92,001,2022-04-22_15h10.50.473,RALT_PLD,2020.2.10,Win32,60,B,,,,,,,A,No,,,,,,,right,0,0.5632,Congruent,0,social,1,0,1,0,1,,,,,,,,,,
A,B,75,,,,,,,,,,,,,leal92,001,2022-04-22_15h10.50.473,RALT_PLD,2020.2.10,Win32,60,B,,,,,,,B,Yes,,,,,,,right,0,0.8111,Incongruent,0,social,2,0,2,0,1,,,,,,,,,,
A,B,29,,,,,,,,,,,,,leal92,001,2022-04-22_15h10.50.473,RALT_PLD,2020.2.10,Win32,60,A,,,,,,,A,Yes,,,,,,,left,0,0.5524,Incongruent,0,social,3,0,3,0,1,,,,,,,,,,
,,,,,,,,,,,,,,,leal92,001,2022-04-22_15h10.50.473,RALT_PLD,2020.2.10,Win32,60,,,,,,,,,,,,,,,,,,,,,,,,,,,0,0,0,0,1,,,,,
A,B,65,,,,,,,,,,,,,leal92,001,2022-04-22_15h10.50.473,RALT_PLD,2020.2.10,Win32,60,B,,,,,,,B,Yes,,,,,,,right,0,0.6241,Congruent,1,social,0,0,0,0,1,,,,,,,,,,
A,B,41,,,,,,,,,,,,,leal92,001,2022-04-22_15h10.50.473,RALT_PLD,2020.2.10,Win32,60,A,,,,,,,A,Yes,,,,,,,left,0,1.2649,Congruent,1,social,1,0,1,0,1,,,,,,,,,,
A,B,29,,,,,,,,,,,,,leal92,001,2022-04-22_15h10.50.473,RALT_PLD,2020.2.10,Win32,60,B,,,,,,,A,No,,,,,,,right,0,2.2672,Congruent,0,social,2,0,2,0,1,,,,,,,,,,
A,B,75,,,,,,,,,,,,,leal92,001,2022-04-22_15h10.50.473,RALT_PLD,2020.2.10,Win32,60,A,,,,,,,B,No,,,,,,,left,0,2.0664,Congruent,0,social,3,0,3,0,1,,,,,,,,,,
,,,,,,,,,,,,,,,leal92,001,2022-04-22_15h10.50.473,RALT_PLD,2020.2.10,Win32,60,,,,,,,,,,,,,,,,,,,,,,,,,,,1,0,1,0,1,,,,,
B,A,65,,,,,,,,,,,,,leal92,001,2022-04-22_15h10.50.473,RALT_PLD,2020.2.10,Win32,60,A,,,,,,,B,No,,,,,,,right,0,1.9673,Congruent,0,social,0,0,0,0,1,,,,,,,,,,
B,A,75,,,,,,,,,,,,,leal92,001,2022-04-22_15h10.50.473,RALT_PLD,2020.2.10,Win32,60,B,,,,,,,B,Yes,,,,,,,left,0,1.0767,Congruent,1,social,1,0,1,0,1,,,,,,,,,,
B,A,29,,,,,,,,,,,,,leal92,001,2022-04-22_15h10.50.473,RALT_PLD,2020.2.10,Win32,60,A,,,,,,,A,Yes,,,,,,,right,0,0.6237,Congruent,1,social,2,0,2,0,1,,,,,,,,,,
B,A,41,,,,,,,,,,,,,leal92,001,2022-04-22_15h10.50.473,RALT_PLD,2020.2.10,Win32,60,B,,,,,,,A,No,,,,,,,left,0,0.3692,Congruent,0,social,3,0,3,0,1,,,,,,,,,,
,,,,,,,,,,,,,,,leal92,001,2022-04-22_15h10.50.473,RALT_PLD,2020.2.10,Win32,60,,,,,,,,,,,,,,,,,,,,,,,,,,,2,0,2,0,1,,,,,
B,A,29,,,,,,,,,,,,,leal92,001,2022-04-22_15h10.50.473,RALT_PLD,2020.2.10,Win32,60,A,,,,,,,A,Yes,,,,,,,right,0,1.1007,Congruent,1,social,0,0,0,0,1,,,,,,,,,,
B,A,41,,,,,,,,,,,,,leal92,001,2022-04-22_15h10.50.473,RALT_PLD,2020.2.10,Win32,60,B,,,,,,,A,No,,,,,,,left,0,0.612,Congruent,0,social,1,0,1,0,1,,,,,,,,,,
B,A,65,,,,,,,,,,,,,leal92,001,2022-04-22_15h10.50.473,RALT_PLD,2020.2.10,Win32,60,A,,,,,,,B,No,,,,,,,right,0,0.5986,Incongruent,1,social,2,0,2,0,1,,,,,,,,,,
B,A,75,,,,,,,,,,,,,leal92,001,2022-04-22_15h10.50.473,RALT_PLD,2020.2.10,Win32,60,B,,,,,,,B,Yes,,,,,,,left,0,0.4292,Congruent,1,social,3,0,3,0,1,,,,,,,,,,
,,,,,,,,,,,,,,,leal92,001,2022-04-22_15h10.50.473,RALT_PLD,2020.2.10,Win32,60,,,,,,,,,,,,,,,,,,,,,,,,,,,3,0,3,0,1,,,,,
A,B,41,,,,,,,,,,,,,leal92,001,2022-04-22_15h10.50.473,RALT_PLD,2020.2.10,Win32,60,B,,,,,,,A,No,,,,,,,right,0,1.0652,Congruent,0,social,0,0,0,0,1,,,,,,,,,,
A,B,75,,,,,,,,,,,,,leal92,001,2022-04-22_15h10.50.473,RALT_PLD,2020.2.10,Win32,60,A,,,,,,,B,No,,,,,,,left,0,0.9228,Incongruent,1,social,1,0,1,0,1,,,,,,,,,,
A,B,65,,,,,,,,,,,,,leal92,001,2022-04-22_15h10.50.473,RALT_PLD,2020.2.10,Win32,60,B,,,,,,,B,Yes,,,,,,,right,0,0.5981,Incongruent,0,social,2,0,2,0,1,,,,,,,,,,
A,B,29,,,,,,,,,,,,,leal92,001,2022-04-22_15h10.50.473,RALT_PLD,2020.2.10,Win32,60,A,,,,,,,A,Yes,,,,,,,left,0,0.5726,Congruent,1,social,3,0,3,0,1,,,,,,,,,,
,,,,,,,,,,,,,,,leal92,001,2022-04-22_15h10.50.473,RALT_PLD,2020.2.10,Win32,60,,,,,,,,,,,,,,,,,,,,,,,,,,,4,0,4,0,1,,,,,
A,B,65,,,,,,,,,,,,,leal92,001,2022-04-22_15h10.50.473,RALT_PLD,2020.2.10,Win32,60,B,,,,,,,B,Yes,,,,,,,right,0,0.5474,Congruent,1,social,0,0,0,0,1,,,,,,,,,,
A,B,75,,,,,,,,,,,,,leal92,001,2022-04-22_15h10.50.473,RALT_PLD,2020.2.10,Win32,60,A,,,,,,,B,No,,,,,,,left,0,1.191,Congruent,0,social,1,0,1,0,1,,,,,,,,,,
A,B,29,,,,,,,,,,,,,leal92,001,2022-04-22_15h10.50.473,RALT_PLD,2020.2.10,Win32,60,B,,,,,,,A,No,,,,,,,right,0,0.438,Congruent,0,social,2,0,2,0,1,,,,,,,,,,
A,B,41,,,,,,,,,,,,,leal92,001,2022-04-22_15h10.50.473,RALT_PLD,2020.2.10,Win32,60,A,,,,,,,A,Yes,,,,,,,left,0,1.5688,Congruent,1,social,3,0,3,0,1,,,,,,,,,,
,,,,,,,,,,,,,,,leal92,001,2022-04-22_15h10.50.473,RALT_PLD,2020.2.10,Win32,60,,,,,,,,,,,,,,,,,,,,,,,,,,,5,0,5,0,1,,,,,
,,,,,,,,,,,,,,,leal92,001,2022-04-22_15h10.50.473,RALT_PLD,2020.2.10,Win32,60,,,,,,,,,,,,,,,,,,,,,,,,,,,,,,,,3,0,3,0,1
