left,right,stim,ParticipantAnswer,response_training.keys,response_training.corr,response_training.rt,training_social.thisRepN,training_social.thisTrialN,training_social.thisN,training_social.thisIndex,training_social.ran,Stim,filename_neutral,filename_feedback_happy,filename_feedback_angry,CorrCatTrain,participant,session,date,expName,psychopyVersion,OS,frameRate,training_nonsocial.thisRepN,training_nonsocial.thisTrialN,training_nonsocial.thisN,training_nonsocial.thisIndex,training_nonsocial.ran,CorrCat,CorrectAns,prob_fb.thisRepN,prob_fb.thisTrialN,prob_fb.thisN,prob_fb.thisIndex,prob_fb.ran,CorrCatProb,response_training_2.keys,response_training_2.corr,response_training_2.rt,BlockType,trials.thisRepN,trials.thisTrialN,trials.thisN,trials.thisIndex,trials.ran,Congr/Incongr,cycles.thisRepN,cycles.thisTrialN,cycles.thisN,cycles.thisIndex,cycles.ran,blocks.thisRepN,blocks.thisTrialN,blocks.thisN,blocks.thisIndex,blocks.ran
A,B,38,B,right,0,4.0104,0,0,0,3,1,38,Stimuli/neutral/Still.jpg,Stimuli/social/happy/M02-Happy Man.mp4,Stimuli/social/angry/M06-Angry Man.mp4,B,sese95,001,2022-03-23_15h58.48.449,RALT_PLD,2020.2.10,Win32,60,,,,,,,,,,,,,,,,,,,,,,,,,,,,,,,,,
A,B,99,A,left,0,1.1775,0,1,1,0,1,99,Stimuli/neutral/Still.jpg,Stimuli/social/happy/F01-Happy Women.mp4,Stimuli/social/angry/F04-Angry Women.mp4,A,sese95,001,2022-03-23_15h58.48.449,RALT_PLD,2020.2.10,Win32,60,,,,,,,,,,,,,,,,,,,,,,,,,,,,,,,,,
A,B,38,A,left,0,5.4286,0,2,2,1,1,38,Stimuli/neutral/Still.jpg,Stimuli/social/happy/M02-Happy Man.mp4,Stimuli/social/angry/M06-Angry Man.mp4,A,sese95,001,2022-03-23_15h58.48.449,RALT_PLD,2020.2.10,Win32,60,,,,,,,,,,,,,,,,,,,,,,,,,,,,,,,,,
A,B,91,B,right,0,3.2325,0,3,3,2,1,91,Stimuli/neutral/Still.jpg,Stimuli/social/happy/F01-Happy Women.mp4,Stimuli/social/angry/F04-Angry Women.mp4,B,sese95,001,2022-03-23_15h58.48.449,RALT_PLD,2020.2.10,Win32,60,,,,,,,,,,,,,,,,,,,,,,,,,,,,,,,,,
A,B,98,B,right,0,1.9766,,,,,,98,Stimuli/neutral/Still.jpg,Stimuli/nonsocial/Right Tick.mp4,Stimuli/nonsocial/Wrong Tick.mp4,B,sese95,001,2022-03-23_15h58.48.449,RALT_PLD,2020.2.10,Win32,60,0,0,0,0,1,,,,,,,,,,,,,,,,,,,,,,,,,,,,
A,B,43,B,right,0,1.1215,,,,,,43,Stimuli/neutral/Still.jpg,Stimuli/nonsocial/Right Tick.mp4,Stimuli/nonsocial/Wrong Tick.mp4,A,sese95,001,2022-03-23_15h58.48.449,RALT_PLD,2020.2.10,Win32,60,0,1,1,2,1,,,,,,,,,,,,,,,,,,,,,,,,,,,,
A,B,53,B,right,0,2.096,,,,,,53,Stimuli/neutral/Still.jpg,Stimuli/nonsocial/Right Tick.mp4,Stimuli/nonsocial/Wrong Tick.mp4,A,sese95,001,2022-03-23_15h58.48.449,RALT_PLD,2020.2.10,Win32,60,0,2,2,1,1,,,,,,,,,,,,,,,,,,,,,,,,,,,,
A,B,39,B,right,0,0.9488,,,,,,39,Stimuli/neutral/Still.jpg,Stimuli/nonsocial/Right Tick.mp4,Stimuli/nonsocial/Wrong Tick.mp4,B,sese95,001,2022-03-23_15h58.48.449,RALT_PLD,2020.2.10,Win32,60,0,3,3,3,1,,,,,,,,,,,,,,,,,,,,,,,,,,,,
A,B,38,B,right,0,1.6651,,,,,,38,Stimuli/neutral/Still.jpg,Stimuli/social/happy/M02-Happy Man.mp4,Stimuli/social/angry/M06-Angry Man.mp4,,sese95,001,2022-03-23_15h58.48.449,RALT_PLD,2020.2.10,Win32,60,,,,,,"[[""B"",""B"",""A"",""A""],[""A"",""A"",""B"",""B""]]",Yes,0,0,0,3,1,B,,,,,,,,,,,,,,,,,,,,
A,B,99,B,right,0,1.5054,,,,,,99,Stimuli/neutral/Still.jpg,Stimuli/social/happy/F01-Happy Women.mp4,Stimuli/social/angry/F04-Angry Women.mp4,,sese95,001,2022-03-23_15h58.48.449,RALT_PLD,2020.2.10,Win32,60,,,,,,"[[""B"",""B"",""A"",""A""],[""A"",""A"",""B"",""B""]]",No,0,1,1,0,1,A,,,,,,,,,,,,,,,,,,,,
A,B,38,A,left,0,1.8379,,,,,,38,Stimuli/neutral/Still.jpg,Stimuli/social/happy/M02-Happy Man.mp4,Stimuli/social/angry/M06-Angry Man.mp4,,sese95,001,2022-03-23_15h58.48.449,RALT_PLD,2020.2.10,Win32,60,,,,,,"[[""B"",""B"",""A"",""A""],[""A"",""A"",""B"",""B""]]",Yes,0,2,2,1,1,A,,,,,,,,,,,,,,,,,,,,
A,B,91,A,left,0,2.1101,,,,,,91,Stimuli/neutral/Still.jpg,Stimuli/social/happy/F01-Happy Women.mp4,Stimuli/social/angry/F04-Angry Women.mp4,,sese95,001,2022-03-23_15h58.48.449,RALT_PLD,2020.2.10,Win32,60,,,,,,"[[""B"",""B"",""A"",""A""],[""A"",""A"",""B"",""B""]]",No,0,3,3,2,1,B,,,,,,,,,,,,,,,,,,,,
A,B,62,B,,,,,,,,,,,,,,sese95,001,2022-03-23_15h58.48.449,RALT_PLD,2020.2.10,Win32,60,,,,,,A,No,,,,,,,right,0,1.2708,social,0,0,0,0,1,,,,,,,,,,,
A,B,52,B,,,,,,,,,,,,,,sese95,001,2022-03-23_15h58.48.449,RALT_PLD,2020.2.10,Win32,60,,,,,,B,Yes,,,,,,,right,0,0.9164,social,1,0,1,0,1,Incongruent,,,,,,,,,,
A,B,22,A,,,,,,,,,,,,,,sese95,001,2022-03-23_15h58.48.449,RALT_PLD,2020.2.10,Win32,60,,,,,,A,Yes,,,,,,,left,0,1.4504,social,2,0,2,0,1,Congruent,,,,,,,,,,
A,B,36,B,,,,,,,,,,,,,,sese95,001,2022-03-23_15h58.48.449,RALT_PLD,2020.2.10,Win32,60,,,,,,B,Yes,,,,,,,right,0,1.667,social,3,0,3,0,1,Congruent,,,,,,,,,,
,,,,,,,,,,,,,,,,,sese95,001,2022-03-23_15h58.48.449,RALT_PLD,2020.2.10,Win32,60,,,,,,,,,,,,,,,,,,,,,,,,0,0,0,0,1,,,,,
A,B,22,A,,,,,,,,,,,,,,sese95,001,2022-03-23_15h58.48.449,RALT_PLD,2020.2.10,Win32,60,,,,,,A,Yes,,,,,,,left,0,2.3562,social,0,0,0,0,1,Congruent,,,,,,,,,,
A,B,52,A,,,,,,,,,,,,,,sese95,001,2022-03-23_15h58.48.449,RALT_PLD,2020.2.10,Win32,60,,,,,,B,No,,,,,,,left,0,1.4843,social,1,0,1,0,1,,,,,,,,,,,
A,B,36,B,,,,,,,,,,,,,,sese95,001,2022-03-23_15h58.48.449,RALT_PLD,2020.2.10,Win32,60,,,,,,B,Yes,,,,,,,right,0,2.1437,social,2,0,2,0,1,Congruent,,,,,,,,,,
A,B,62,A,,,,,,,,,,,,,,sese95,001,2022-03-23_15h58.48.449,RALT_PLD,2020.2.10,Win32,60,,,,,,A,Yes,,,,,,,left,0,1.2159,social,3,0,3,0,1,Congruent,,,,,,,,,,
,,,,,,,,,,,,,,,,,sese95,001,2022-03-23_15h58.48.449,RALT_PLD,2020.2.10,Win32,60,,,,,,,,,,,,,,,,,,,,,,,,1,0,1,0,1,,,,,
A,B,36,B,,,,,,,,,,,,,,sese95,001,2022-03-23_15h58.48.449,RALT_PLD,2020.2.10,Win32,60,,,,,,B,Yes,,,,,,,right,0,1.1215,social,0,0,0,0,1,Congruent,,,,,,,,,,
A,B,62,A,,,,,,,,,,,,,,sese95,001,2022-03-23_15h58.48.449,RALT_PLD,2020.2.10,Win32,60,,,,,,A,Yes,,,,,,,left,0,1.2235,social,1,0,1,0,1,Incongruent,,,,,,,,,,
A,B,52,A,,,,,,,,,,,,,,sese95,001,2022-03-23_15h58.48.449,RALT_PLD,2020.2.10,Win32,60,,,,,,B,No,,,,,,,left,0,0.7682,social,2,0,2,0,1,,,,,,,,,,,
A,B,22,A,,,,,,,,,,,,,,sese95,001,2022-03-23_15h58.48.449,RALT_PLD,2020.2.10,Win32,60,,,,,,A,Yes,,,,,,,left,0,1.0024,social,3,0,3,0,1,Congruent,,,,,,,,,,
,,,,,,,,,,,,,,,,,sese95,001,2022-03-23_15h58.48.449,RALT_PLD,2020.2.10,Win32,60,,,,,,,,,,,,,,,,,,,,,,,,2,0,2,0,1,,,,,
A,B,22,A,,,,,,,,,,,,,,sese95,001,2022-03-23_15h58.48.449,RALT_PLD,2020.2.10,Win32,60,,,,,,A,Yes,,,,,,,left,0,0.7929,social,0,0,0,0,1,Congruent,,,,,,,,,,
A,B,36,B,,,,,,,,,,,,,,sese95,001,2022-03-23_15h58.48.449,RALT_PLD,2020.2.10,Win32,60,,,,,,B,Yes,,,,,,,right,0,0.7873,social,1,0,1,0,1,Congruent,,,,,,,,,,
A,B,62,A,,,,,,,,,,,,,,sese95,001,2022-03-23_15h58.48.449,RALT_PLD,2020.2.10,Win32,60,,,,,,A,Yes,,,,,,,left,0,2.5329,social,2,0,2,0,1,Congruent,,,,,,,,,,
A,B,52,B,,,,,,,,,,,,,,sese95,001,2022-03-23_15h58.48.449,RALT_PLD,2020.2.10,Win32,60,,,,,,B,Yes,,,,,,,right,0,0.5928,social,3,0,3,0,1,Congruent,,,,,,,,,,
,,,,,,,,,,,,,,,,,sese95,001,2022-03-23_15h58.48.449,RALT_PLD,2020.2.10,Win32,60,,,,,,,,,,,,,,,,,,,,,,,,3,0,3,0,1,,,,,
B,A,22,A,,,,,,,,,,,,,,sese95,001,2022-03-23_15h58.48.449,RALT_PLD,2020.2.10,Win32,60,,,,,,A,Yes,,,,,,,right,0,1.5286,social,0,0,0,0,1,Congruent,,,,,,,,,,
B,A,52,B,,,,,,,,,,,,,,sese95,001,2022-03-23_15h58.48.449,RALT_PLD,2020.2.10,Win32,60,,,,,,B,Yes,,,,,,,left,0,3.015,social,1,0,1,0,1,Congruent,,,,,,,,,,
B,A,62,A,,,,,,,,,,,,,,sese95,001,2022-03-23_15h58.48.449,RALT_PLD,2020.2.10,Win32,60,,,,,,A,Yes,,,,,,,right,0,1.0355,social,2,0,2,0,1,Congruent,,,,,,,,,,
B,A,36,B,,,,,,,,,,,,,,sese95,001,2022-03-23_15h58.48.449,RALT_PLD,2020.2.10,Win32,60,,,,,,B,Yes,,,,,,,left,0,1.3661,social,3,0,3,0,1,Congruent,,,,,,,,,,
,,,,,,,,,,,,,,,,,sese95,001,2022-03-23_15h58.48.449,RALT_PLD,2020.2.10,Win32,60,,,,,,,,,,,,,,,,,,,,,,,,4,0,4,0,1,,,,,
B,A,62,A,,,,,,,,,,,,,,sese95,001,2022-03-23_15h58.48.449,RALT_PLD,2020.2.10,Win32,60,,,,,,A,Yes,,,,,,,right,0,2.4205,social,0,0,0,0,1,Congruent,,,,,,,,,,
B,A,22,A,,,,,,,,,,,,,,sese95,001,2022-03-23_15h58.48.449,RALT_PLD,2020.2.10,Win32,60,,,,,,A,Yes,,,,,,,right,0,0.5927,social,1,0,1,0,1,Congruent,,,,,,,,,,
B,A,52,B,,,,,,,,,,,,,,sese95,001,2022-03-23_15h58.48.449,RALT_PLD,2020.2.10,Win32,60,,,,,,B,Yes,,,,,,,left,0,1.0846,social,2,0,2,0,1,Incongruent,,,,,,,,,,
B,A,36,B,,,,,,,,,,,,,,sese95,001,2022-03-23_15h58.48.449,RALT_PLD,2020.2.10,Win32,60,,,,,,B,Yes,,,,,,,left,0,0.8817,social,3,0,3,0,1,Congruent,,,,,,,,,,
,,,,,,,,,,,,,,,,,sese95,001,2022-03-23_15h58.48.449,RALT_PLD,2020.2.10,Win32,60,,,,,,,,,,,,,,,,,,,,,,,,5,0,5,0,1,,,,,
,,,,,,,,,,,,,,,,,sese95,001,2022-03-23_15h58.48.449,RALT_PLD,2020.2.10,Win32,60,,,,,,,,,,,,,,,,,,,,,,,,,,,,,0,0,0,0,1
A,B,39,B,,,,,,,,,,,,,,sese95,001,2022-03-23_15h58.48.449,RALT_PLD,2020.2.10,Win32,60,,,,,,B,Yes,,,,,,,right,0,1.2851,nonsocial,0,0,0,0,1,Incongruent,,,,,,,,,,
A,B,11,B,,,,,,,,,,,,,,sese95,001,2022-03-23_15h58.48.449,RALT_PLD,2020.2.10,Win32,60,,,,,,A,No,,,,,,,right,0,1.4355,nonsocial,1,0,1,0,1,,,,,,,,,,,
A,B,75,B,,,,,,,,,,,,,,sese95,001,2022-03-23_15h58.48.449,RALT_PLD,2020.2.10,Win32,60,,,,,,A,No,,,,,,,right,0,0.7577,nonsocial,2,0,2,0,1,,,,,,,,,,,
A,B,79,B,,,,,,,,,,,,,,sese95,001,2022-03-23_15h58.48.449,RALT_PLD,2020.2.10,Win32,60,,,,,,B,Yes,,,,,,,right,0,1.1275,nonsocial,3,0,3,0,1,Incongruent,,,,,,,,,,
,,,,,,,,,,,,,,,,,sese95,001,2022-03-23_15h58.48.449,RALT_PLD,2020.2.10,Win32,60,,,,,,,,,,,,,,,,,,,,,,,,0,0,0,0,1,,,,,
B,A,79,B,,,,,,,,,,,,,,sese95,001,2022-03-23_15h58.48.449,RALT_PLD,2020.2.10,Win32,60,,,,,,B,Yes,,,,,,,left,0,1.7847,nonsocial,0,0,0,0,1,Congruent,,,,,,,,,,
B,A,11,B,,,,,,,,,,,,,,sese95,001,2022-03-23_15h58.48.449,RALT_PLD,2020.2.10,Win32,60,,,,,,A,No,,,,,,,left,0,0.6249,nonsocial,1,0,1,0,1,,,,,,,,,,,
B,A,75,B,,,,,,,,,,,,,,sese95,001,2022-03-23_15h58.48.449,RALT_PLD,2020.2.10,Win32,60,,,,,,A,No,,,,,,,left,0,0.6558,nonsocial,2,0,2,0,1,,,,,,,,,,,
B,A,39,A,,,,,,,,,,,,,,sese95,001,2022-03-23_15h58.48.449,RALT_PLD,2020.2.10,Win32,60,,,,,,B,No,,,,,,,right,0,1.2363,nonsocial,3,0,3,0,1,,,,,,,,,,,
,,,,,,,,,,,,,,,,,sese95,001,2022-03-23_15h58.48.449,RALT_PLD,2020.2.10,Win32,60,,,,,,,,,,,,,,,,,,,,,,,,1,0,1,0,1,,,,,
A,B,39,A,,,,,,,,,,,,,,sese95,001,2022-03-23_15h58.48.449,RALT_PLD,2020.2.10,Win32,60,,,,,,B,No,,,,,,,left,0,1.406,nonsocial,0,0,0,0,1,,,,,,,,,,,
A,B,79,A,,,,,,,,,,,,,,sese95,001,2022-03-23_15h58.48.449,RALT_PLD,2020.2.10,Win32,60,,,,,,B,No,,,,,,,left,0,0.7488,nonsocial,1,0,1,0,1,,,,,,,,,,,
A,B,75,A,,,,,,,,,,,,,,sese95,001,2022-03-23_15h58.48.449,RALT_PLD,2020.2.10,Win32,60,,,,,,A,Yes,,,,,,,left,0,1.2302,nonsocial,2,0,2,0,1,Congruent,,,,,,,,,,
A,B,11,A,,,,,,,,,,,,,,sese95,001,2022-03-23_15h58.48.449,RALT_PLD,2020.2.10,Win32,60,,,,,,A,Yes,,,,,,,left,0,1.4576,nonsocial,3,0,3,0,1,Congruent,,,,,,,,,,
,,,,,,,,,,,,,,,,,sese95,001,2022-03-23_15h58.48.449,RALT_PLD,2020.2.10,Win32,60,,,,,,,,,,,,,,,,,,,,,,,,2,0,2,0,1,,,,,
A,B,79,A,,,,,,,,,,,,,,sese95,001,2022-03-23_15h58.48.449,RALT_PLD,2020.2.10,Win32,60,,,,,,B,No,,,,,,,left,0,1.1149,nonsocial,0,0,0,0,1,,,,,,,,,,,
A,B,39,B,,,,,,,,,,,,,,sese95,001,2022-03-23_15h58.48.449,RALT_PLD,2020.2.10,Win32,60,,,,,,B,Yes,,,,,,,right,0,0.5474,nonsocial,1,0,1,0,1,Congruent,,,,,,,,,,
A,B,11,A,,,,,,,,,,,,,,sese95,001,2022-03-23_15h58.48.449,RALT_PLD,2020.2.10,Win32,60,,,,,,A,Yes,,,,,,,left,0,0.5528,nonsocial,2,0,2,0,1,Congruent,,,,,,,,,,
A,B,75,A,,,,,,,,,,,,,,sese95,001,2022-03-23_15h58.48.449,RALT_PLD,2020.2.10,Win32,60,,,,,,A,Yes,,,,,,,left,0,1.0368,nonsocial,3,0,3,0,1,Congruent,,,,,,,,,,
,,,,,,,,,,,,,,,,,sese95,001,2022-03-23_15h58.48.449,RALT_PLD,2020.2.10,Win32,60,,,,,,,,,,,,,,,,,,,,,,,,3,0,3,0,1,,,,,
A,B,75,A,,,,,,,,,,,,,,sese95,001,2022-03-23_15h58.48.449,RALT_PLD,2020.2.10,Win32,60,,,,,,A,Yes,,,,,,,left,0,1.0535,nonsocial,0,0,0,0,1,Congruent,,,,,,,,,,
A,B,79,A,,,,,,,,,,,,,,sese95,001,2022-03-23_15h58.48.449,RALT_PLD,2020.2.10,Win32,60,,,,,,B,No,,,,,,,left,0,2.1016,nonsocial,1,0,1,0,1,,,,,,,,,,,
A,B,11,A,,,,,,,,,,,,,,sese95,001,2022-03-23_15h58.48.449,RALT_PLD,2020.2.10,Win32,60,,,,,,A,Yes,,,,,,,left,0,0.6489,nonsocial,2,0,2,0,1,Incongruent,,,,,,,,,,
A,B,39,B,,,,,,,,,,,,,,sese95,001,2022-03-23_15h58.48.449,RALT_PLD,2020.2.10,Win32,60,,,,,,B,Yes,,,,,,,right,0,0.4966,nonsocial,3,0,3,0,1,Congruent,,,,,,,,,,
,,,,,,,,,,,,,,,,,sese95,001,2022-03-23_15h58.48.449,RALT_PLD,2020.2.10,Win32,60,,,,,,,,,,,,,,,,,,,,,,,,4,0,4,0,1,,,,,
B,A,79,A,,,,,,,,,,,,,,sese95,001,2022-03-23_15h58.48.449,RALT_PLD,2020.2.10,Win32,60,,,,,,B,No,,,,,,,right,0,0.7924,nonsocial,0,0,0,0,1,,,,,,,,,,,
B,A,75,A,,,,,,,,,,,,,,sese95,001,2022-03-23_15h58.48.449,RALT_PLD,2020.2.10,Win32,60,,,,,,A,Yes,,,,,,,right,0,1.2593,nonsocial,1,0,1,0,1,Congruent,,,,,,,,,,
B,A,39,B,,,,,,,,,,,,,,sese95,001,2022-03-23_15h58.48.449,RALT_PLD,2020.2.10,Win32,60,,,,,,B,Yes,,,,,,,left,0,2.1209,nonsocial,2,0,2,0,1,Congruent,,,,,,,,,,
B,A,11,A,,,,,,,,,,,,,,sese95,001,2022-03-23_15h58.48.449,RALT_PLD,2020.2.10,Win32,60,,,,,,A,Yes,,,,,,,right,0,1.58,nonsocial,3,0,3,0,1,Congruent,,,,,,,,,,
,,,,,,,,,,,,,,,,,sese95,001,2022-03-23_15h58.48.449,RALT_PLD,2020.2.10,Win32,60,,,,,,,,,,,,,,,,,,,,,,,,5,0,5,0,1,,,,,
,,,,,,,,,,,,,,,,,sese95,001,2022-03-23_15h58.48.449,RALT_PLD,2020.2.10,Win32,60,,,,,,,,,,,,,,,,,,,,,,,,,,,,,1,0,1,0,1
A,B,52,A,,,,,,,,,,,,,,sese95,001,2022-03-23_15h58.48.449,RALT_PLD,2020.2.10,Win32,60,,,,,,B,No,,,,,,,left,0,2.5355,social,0,0,0,0,1,,,,,,,,,,,
A,B,36,A,,,,,,,,,,,,,,sese95,001,2022-03-23_15h58.48.449,RALT_PLD,2020.2.10,Win32,60,,,,,,B,No,,,,,,,left,0,2.9467,social,1,0,1,0,1,,,,,,,,,,,
A,B,62,A,,,,,,,,,,,,,,sese95,001,2022-03-23_15h58.48.449,RALT_PLD,2020.2.10,Win32,60,,,,,,A,Yes,,,,,,,left,0,0.5925,social,2,0,2,0,1,Congruent,,,,,,,,,,
A,B,22,A,,,,,,,,,,,,,,sese95,001,2022-03-23_15h58.48.449,RALT_PLD,2020.2.10,Win32,60,,,,,,A,Yes,,,,,,,left,0,1.108,social,3,0,3,0,1,Congruent,,,,,,,,,,
,,,,,,,,,,,,,,,,,sese95,001,2022-03-23_15h58.48.449,RALT_PLD,2020.2.10,Win32,60,,,,,,,,,,,,,,,,,,,,,,,,0,0,0,0,1,,,,,
B,A,52,B,,,,,,,,,,,,,,sese95,001,2022-03-23_15h58.48.449,RALT_PLD,2020.2.10,Win32,60,,,,,,B,Yes,,,,,,,left,0,3.4579,social,0,0,0,0,1,Congruent,,,,,,,,,,
B,A,62,A,,,,,,,,,,,,,,sese95,001,2022-03-23_15h58.48.449,RALT_PLD,2020.2.10,Win32,60,,,,,,A,Yes,,,,,,,right,0,1.8883,social,1,0,1,0,1,Congruent,,,,,,,,,,
B,A,36,B,,,,,,,,,,,,,,sese95,001,2022-03-23_15h58.48.449,RALT_PLD,2020.2.10,Win32,60,,,,,,B,Yes,,,,,,,left,0,1.8939,social,2,0,2,0,1,Congruent,,,,,,,,,,
B,A,22,A,,,,,,,,,,,,,,sese95,001,2022-03-23_15h58.48.449,RALT_PLD,2020.2.10,Win32,60,,,,,,A,Yes,,,,,,,right,0,0.8485,social,3,0,3,0,1,Congruent,,,,,,,,,,
,,,,,,,,,,,,,,,,,sese95,001,2022-03-23_15h58.48.449,RALT_PLD,2020.2.10,Win32,60,,,,,,,,,,,,,,,,,,,,,,,,1,0,1,0,1,,,,,
B,A,52,B,,,,,,,,,,,,,,sese95,001,2022-03-23_15h58.48.449,RALT_PLD,2020.2.10,Win32,60,,,,,,B,Yes,,,,,,,left,0,1.9905,social,0,0,0,0,1,Congruent,,,,,,,,,,
B,A,62,A,,,,,,,,,,,,,,sese95,001,2022-03-23_15h58.48.449,RALT_PLD,2020.2.10,Win32,60,,,,,,A,Yes,,,,,,,right,0,1.4533,social,1,0,1,0,1,Congruent,,,,,,,,,,
B,A,22,A,,,,,,,,,,,,,,sese95,001,2022-03-23_15h58.48.449,RALT_PLD,2020.2.10,Win32,60,,,,,,A,Yes,,,,,,,right,0,0.5514,social,2,0,2,0,1,Congruent,,,,,,,,,,
B,A,36,B,,,,,,,,,,,,,,sese95,001,2022-03-23_15h58.48.449,RALT_PLD,2020.2.10,Win32,60,,,,,,B,Yes,,,,,,,left,0,0.7321,social,3,0,3,0,1,Congruent,,,,,,,,,,
,,,,,,,,,,,,,,,,,sese95,001,2022-03-23_15h58.48.449,RALT_PLD,2020.2.10,Win32,60,,,,,,,,,,,,,,,,,,,,,,,,2,0,2,0,1,,,,,
B,A,52,B,,,,,,,,,,,,,,sese95,001,2022-03-23_15h58.48.449,RALT_PLD,2020.2.10,Win32,60,,,,,,B,Yes,,,,,,,left,0,1.5667,social,0,0,0,0,1,Congruent,,,,,,,,,,
B,A,36,B,,,,,,,,,,,,,,sese95,001,2022-03-23_15h58.48.449,RALT_PLD,2020.2.10,Win32,60,,,,,,B,Yes,,,,,,,left,0,1.65,social,1,0,1,0,1,Congruent,,,,,,,,,,
B,A,62,A,,,,,,,,,,,,,,sese95,001,2022-03-23_15h58.48.449,RALT_PLD,2020.2.10,Win32,60,,,,,,A,Yes,,,,,,,right,0,1.2606,social,2,0,2,0,1,Incongruent,,,,,,,,,,
B,A,22,A,,,,,,,,,,,,,,sese95,001,2022-03-23_15h58.48.449,RALT_PLD,2020.2.10,Win32,60,,,,,,A,Yes,,,,,,,right,0,0.557,social,3,0,3,0,1,Congruent,,,,,,,,,,
,,,,,,,,,,,,,,,,,sese95,001,2022-03-23_15h58.48.449,RALT_PLD,2020.2.10,Win32,60,,,,,,,,,,,,,,,,,,,,,,,,3,0,3,0,1,,,,,
A,B,52,B,,,,,,,,,,,,,,sese95,001,2022-03-23_15h58.48.449,RALT_PLD,2020.2.10,Win32,60,,,,,,B,Yes,,,,,,,right,0,1.5799,social,0,0,0,0,1,Congruent,,,,,,,,,,
A,B,36,B,,,,,,,,,,,,,,sese95,001,2022-03-23_15h58.48.449,RALT_PLD,2020.2.10,Win32,60,,,,,,B,Yes,,,,,,,right,0,0.6977,social,1,0,1,0,1,Congruent,,,,,,,,,,
A,B,22,A,,,,,,,,,,,,,,sese95,001,2022-03-23_15h58.48.449,RALT_PLD,2020.2.10,Win32,60,,,,,,A,Yes,,,,,,,left,0,0.6034,social,2,0,2,0,1,Congruent,,,,,,,,,,
A,B,62,A,,,,,,,,,,,,,,sese95,001,2022-03-23_15h58.48.449,RALT_PLD,2020.2.10,Win32,60,,,,,,A,Yes,,,,,,,left,0,0.9098,social,3,0,3,0,1,Incongruent,,,,,,,,,,
,,,,,,,,,,,,,,,,,sese95,001,2022-03-23_15h58.48.449,RALT_PLD,2020.2.10,Win32,60,,,,,,,,,,,,,,,,,,,,,,,,4,0,4,0,1,,,,,
A,B,22,A,,,,,,,,,,,,,,sese95,001,2022-03-23_15h58.48.449,RALT_PLD,2020.2.10,Win32,60,,,,,,A,Yes,,,,,,,left,0,1.1523,social,0,0,0,0,1,Congruent,,,,,,,,,,
A,B,62,A,,,,,,,,,,,,,,sese95,001,2022-03-23_15h58.48.449,RALT_PLD,2020.2.10,Win32,60,,,,,,A,Yes,,,,,,,left,0,0.8512,social,1,0,1,0,1,Congruent,,,,,,,,,,
A,B,36,B,,,,,,,,,,,,,,sese95,001,2022-03-23_15h58.48.449,RALT_PLD,2020.2.10,Win32,60,,,,,,B,Yes,,,,,,,right,0,1.5497,social,2,0,2,0,1,Congruent,,,,,,,,,,
A,B,52,B,,,,,,,,,,,,,,sese95,001,2022-03-23_15h58.48.449,RALT_PLD,2020.2.10,Win32,60,,,,,,B,Yes,,,,,,,right,0,0.6018,social,3,0,3,0,1,Congruent,,,,,,,,,,
,,,,,,,,,,,,,,,,,sese95,001,2022-03-23_15h58.48.449,RALT_PLD,2020.2.10,Win32,60,,,,,,,,,,,,,,,,,,,,,,,,5,0,5,0,1,,,,,
,,,,,,,,,,,,,,,,,sese95,001,2022-03-23_15h58.48.449,RALT_PLD,2020.2.10,Win32,60,,,,,,,,,,,,,,,,,,,,,,,,,,,,,2,0,2,0,1
A,B,11,A,,,,,,,,,,,,,,sese95,001,2022-03-23_15h58.48.449,RALT_PLD,2020.2.10,Win32,60,,,,,,A,Yes,,,,,,,left,0,1.4813,nonsocial,0,0,0,0,1,Congruent,,,,,,,,,,
A,B,75,A,,,,,,,,,,,,,,sese95,001,2022-03-23_15h58.48.449,RALT_PLD,2020.2.10,Win32,60,,,,,,A,Yes,,,,,,,left,0,1.3296,nonsocial,1,0,1,0,1,Congruent,,,,,,,,,,
A,B,39,A,,,,,,,,,,,,,,sese95,001,2022-03-23_15h58.48.449,RALT_PLD,2020.2.10,Win32,60,,,,,,B,No,,,,,,,left,0,1.1555,nonsocial,2,0,2,0,1,,,,,,,,,,,
A,B,79,B,,,,,,,,,,,,,,sese95,001,2022-03-23_15h58.48.449,RALT_PLD,2020.2.10,Win32,60,,,,,,B,Yes,,,,,,,right,0,1.091,nonsocial,3,0,3,0,1,Congruent,,,,,,,,,,
,,,,,,,,,,,,,,,,,sese95,001,2022-03-23_15h58.48.449,RALT_PLD,2020.2.10,Win32,60,,,,,,,,,,,,,,,,,,,,,,,,0,0,0,0,1,,,,,
A,B,79,B,,,,,,,,,,,,,,sese95,001,2022-03-23_15h58.48.449,RALT_PLD,2020.2.10,Win32,60,,,,,,B,Yes,,,,,,,right,0,1.4967,nonsocial,0,0,0,0,1,Congruent,,,,,,,,,,
A,B,39,B,,,,,,,,,,,,,,sese95,001,2022-03-23_15h58.48.449,RALT_PLD,2020.2.10,Win32,60,,,,,,B,Yes,,,,,,,right,0,0.4598,nonsocial,1,0,1,0,1,Incongruent,,,,,,,,,,
A,B,75,A,,,,,,,,,,,,,,sese95,001,2022-03-23_15h58.48.449,RALT_PLD,2020.2.10,Win32,60,,,,,,A,Yes,,,,,,,left,0,1.71,nonsocial,2,0,2,0,1,Congruent,,,,,,,,,,
A,B,11,A,,,,,,,,,,,,,,sese95,001,2022-03-23_15h58.48.449,RALT_PLD,2020.2.10,Win32,60,,,,,,A,Yes,,,,,,,left,0,0.8279,nonsocial,3,0,3,0,1,Congruent,,,,,,,,,,
,,,,,,,,,,,,,,,,,sese95,001,2022-03-23_15h58.48.449,RALT_PLD,2020.2.10,Win32,60,,,,,,,,,,,,,,,,,,,,,,,,1,0,1,0,1,,,,,
B,A,75,A,,,,,,,,,,,,,,sese95,001,2022-03-23_15h58.48.449,RALT_PLD,2020.2.10,Win32,60,,,,,,A,Yes,,,,,,,right,0,1.7116,nonsocial,0,0,0,0,1,Congruent,,,,,,,,,,
B,A,39,B,,,,,,,,,,,,,,sese95,001,2022-03-23_15h58.48.449,RALT_PLD,2020.2.10,Win32,60,,,,,,B,Yes,,,,,,,left,0,1.0877,nonsocial,1,0,1,0,1,Congruent,,,,,,,,,,
B,A,79,B,,,,,,,,,,,,,,sese95,001,2022-03-23_15h58.48.449,RALT_PLD,2020.2.10,Win32,60,,,,,,B,Yes,,,,,,,left,0,1.65,nonsocial,2,0,2,0,1,Congruent,,,,,,,,,,
B,A,11,A,,,,,,,,,,,,,,sese95,001,2022-03-23_15h58.48.449,RALT_PLD,2020.2.10,Win32,60,,,,,,A,Yes,,,,,,,right,0,1.2228,nonsocial,3,0,3,0,1,Congruent,,,,,,,,,,
,,,,,,,,,,,,,,,,,sese95,001,2022-03-23_15h58.48.449,RALT_PLD,2020.2.10,Win32,60,,,,,,,,,,,,,,,,,,,,,,,,2,0,2,0,1,,,,,
A,B,75,A,,,,,,,,,,,,,,sese95,001,2022-03-23_15h58.48.449,RALT_PLD,2020.2.10,Win32,60,,,,,,A,Yes,,,,,,,left,0,0.9474,nonsocial,0,0,0,0,1,Congruent,,,,,,,,,,
A,B,11,A,,,,,,,,,,,,,,sese95,001,2022-03-23_15h58.48.449,RALT_PLD,2020.2.10,Win32,60,,,,,,A,Yes,,,,,,,left,0,0.4488,nonsocial,1,0,1,0,1,Congruent,,,,,,,,,,
A,B,79,B,,,,,,,,,,,,,,sese95,001,2022-03-23_15h58.48.449,RALT_PLD,2020.2.10,Win32,60,,,,,,B,Yes,,,,,,,right,0,0.6809,nonsocial,2,0,2,0,1,Congruent,,,,,,,,,,
A,B,39,B,,,,,,,,,,,,,,sese95,001,2022-03-23_15h58.48.449,RALT_PLD,2020.2.10,Win32,60,,,,,,B,Yes,,,,,,,right,0,0.763,nonsocial,3,0,3,0,1,Congruent,,,,,,,,,,
,,,,,,,,,,,,,,,,,sese95,001,2022-03-23_15h58.48.449,RALT_PLD,2020.2.10,Win32,60,,,,,,,,,,,,,,,,,,,,,,,,3,0,3,0,1,,,,,
A,B,79,B,,,,,,,,,,,,,,sese95,001,2022-03-23_15h58.48.449,RALT_PLD,2020.2.10,Win32,60,,,,,,B,Yes,,,,,,,right,0,0.7989,nonsocial,0,0,0,0,1,Congruent,,,,,,,,,,
A,B,11,A,,,,,,,,,,,,,,sese95,001,2022-03-23_15h58.48.449,RALT_PLD,2020.2.10,Win32,60,,,,,,A,Yes,,,,,,,left,0,0.8293,nonsocial,1,0,1,0,1,Congruent,,,,,,,,,,
A,B,75,A,,,,,,,,,,,,,,sese95,001,2022-03-23_15h58.48.449,RALT_PLD,2020.2.10,Win32,60,,,,,,A,Yes,,,,,,,left,0,0.7229,nonsocial,2,0,2,0,1,Congruent,,,,,,,,,,
A,B,39,B,,,,,,,,,,,,,,sese95,001,2022-03-23_15h58.48.449,RALT_PLD,2020.2.10,Win32,60,,,,,,B,Yes,,,,,,,right,0,0.8991,nonsocial,3,0,3,0,1,Congruent,,,,,,,,,,
,,,,,,,,,,,,,,,,,sese95,001,2022-03-23_15h58.48.449,RALT_PLD,2020.2.10,Win32,60,,,,,,,,,,,,,,,,,,,,,,,,4,0,4,0,1,,,,,
B,A,11,A,,,,,,,,,,,,,,sese95,001,2022-03-23_15h58.48.449,RALT_PLD,2020.2.10,Win32,60,,,,,,A,Yes,,,,,,,right,0,1.1551,nonsocial,0,0,0,0,1,Congruent,,,,,,,,,,
B,A,39,B,,,,,,,,,,,,,,sese95,001,2022-03-23_15h58.48.449,RALT_PLD,2020.2.10,Win32,60,,,,,,B,Yes,,,,,,,left,0,0.858,nonsocial,1,0,1,0,1,Incongruent,,,,,,,,,,
B,A,79,B,,,,,,,,,,,,,,sese95,001,2022-03-23_15h58.48.449,RALT_PLD,2020.2.10,Win32,60,,,,,,B,Yes,,,,,,,left,0,1.1213,nonsocial,2,0,2,0,1,Congruent,,,,,,,,,,
B,A,75,A,,,,,,,,,,,,,,sese95,001,2022-03-23_15h58.48.449,RALT_PLD,2020.2.10,Win32,60,,,,,,A,Yes,,,,,,,right,0,0.7157,nonsocial,3,0,3,0,1,Congruent,,,,,,,,,,
,,,,,,,,,,,,,,,,,sese95,001,2022-03-23_15h58.48.449,RALT_PLD,2020.2.10,Win32,60,,,,,,,,,,,,,,,,,,,,,,,,5,0,5,0,1,,,,,
,,,,,,,,,,,,,,,,,sese95,001,2022-03-23_15h58.48.449,RALT_PLD,2020.2.10,Win32,60,,,,,,,,,,,,,,,,,,,,,,,,,,,,,3,0,3,0,1
