left,right,stim,response_training.keys,response_training.corr,training_social.thisRepN,training_social.thisTrialN,training_social.thisN,training_social.thisIndex,training_social.ran,Stim,filename_neutral,filename_feedback_happy,filename_feedback_angry,CorrCatTrain,participant,session,date,expName,psychopyVersion,OS,frameRate,ParticipantAnswer,response_training.rt,training_nonsocial.thisRepN,training_nonsocial.thisTrialN,training_nonsocial.thisN,training_nonsocial.thisIndex,training_nonsocial.ran,CorrCat,CorrectAns,prob_fb.thisRepN,prob_fb.thisTrialN,prob_fb.thisN,prob_fb.thisIndex,prob_fb.ran,CorrCatProb,response_training_2.keys,response_training_2.corr,response_training_2.rt,Congr/Incongr,Reward,BlockType,trials.thisRepN,trials.thisTrialN,trials.thisN,trials.thisIndex,trials.ran,cycles.thisRepN,cycles.thisTrialN,cycles.thisN,cycles.thisIndex,cycles.ran,blocks.thisRepN,blocks.thisTrialN,blocks.thisN,blocks.thisIndex,blocks.ran
B,A,38,,0,0,0,0,3,1,38,Stimuli/neutral/Still.jpg,Stimuli/social/happy/M02-Happy Man.mp4,Stimuli/social/angry/M06-Angry Man.mp4,B,vima01,001,2022-04-26_14h00.52.731,RALT_PLD,2020.2.10,Win32,60,,,,,,,,,,,,,,,,,,,,,,,,,,,,,,,,,,,,
B,A,91,,0,0,1,1,2,1,91,Stimuli/neutral/Still.jpg,Stimuli/social/happy/F01-Happy Women.mp4,Stimuli/social/angry/F04-Angry Women.mp4,B,vima01,001,2022-04-26_14h00.52.731,RALT_PLD,2020.2.10,Win32,60,,,,,,,,,,,,,,,,,,,,,,,,,,,,,,,,,,,,
B,A,99,,0,0,2,2,0,1,99,Stimuli/neutral/Still.jpg,Stimuli/social/happy/F01-Happy Women.mp4,Stimuli/social/angry/F04-Angry Women.mp4,A,vima01,001,2022-04-26_14h00.52.731,RALT_PLD,2020.2.10,Win32,60,,,,,,,,,,,,,,,,,,,,,,,,,,,,,,,,,,,,
B,A,38,,0,0,3,3,1,1,38,Stimuli/neutral/Still.jpg,Stimuli/social/happy/M02-Happy Man.mp4,Stimuli/social/angry/M06-Angry Man.mp4,A,vima01,001,2022-04-26_14h00.52.731,RALT_PLD,2020.2.10,Win32,60,,,,,,,,,,,,,,,,,,,,,,,,,,,,,,,,,,,,
B,A,39,right,0,,,,,,39,Stimuli/neutral/Still.jpg,Stimuli/nonsocial/Right Tick.mp4,Stimuli/nonsocial/Wrong Tick.mp4,B,vima01,001,2022-04-26_14h00.52.731,RALT_PLD,2020.2.10,Win32,60,A,1.0363,0,0,0,3,1,,,,,,,,,,,,,,,,,,,,,,,,,,,,,
B,A,53,right,0,,,,,,53,Stimuli/neutral/Still.jpg,Stimuli/nonsocial/Right Tick.mp4,Stimuli/nonsocial/Wrong Tick.mp4,A,vima01,001,2022-04-26_14h00.52.731,RALT_PLD,2020.2.10,Win32,60,A,1.3469,0,1,1,1,1,,,,,,,,,,,,,,,,,,,,,,,,,,,,,
B,A,43,right,0,,,,,,43,Stimuli/neutral/Still.jpg,Stimuli/nonsocial/Right Tick.mp4,Stimuli/nonsocial/Wrong Tick.mp4,A,vima01,001,2022-04-26_14h00.52.731,RALT_PLD,2020.2.10,Win32,60,A,0.9846,0,2,2,2,1,,,,,,,,,,,,,,,,,,,,,,,,,,,,,
B,A,98,left,0,,,,,,98,Stimuli/neutral/Still.jpg,Stimuli/nonsocial/Right Tick.mp4,Stimuli/nonsocial/Wrong Tick.mp4,B,vima01,001,2022-04-26_14h00.52.731,RALT_PLD,2020.2.10,Win32,60,B,1.5198,0,3,3,0,1,,,,,,,,,,,,,,,,,,,,,,,,,,,,,
B,A,38,right,0,,,,,,38,Stimuli/neutral/Still.jpg,Stimuli/social/happy/M02-Happy Man.mp4,Stimuli/social/angry/M06-Angry Man.mp4,,vima01,001,2022-04-26_14h00.52.731,RALT_PLD,2020.2.10,Win32,60,A,1.3502,,,,,,"[[""A"",""A"",""B"",""B""],[""B"",""A"",""B"",""A""]]",No,0,0,0,3,1,B,,,,,,,,,,,,,,,,,,,,,
B,A,38,right,0,,,,,,38,Stimuli/neutral/Still.jpg,Stimuli/social/happy/M02-Happy Man.mp4,Stimuli/social/angry/M06-Angry Man.mp4,,vima01,001,2022-04-26_14h00.52.731,RALT_PLD,2020.2.10,Win32,60,A,1.0872,,,,,,"[[""A"",""A"",""B"",""B""],[""B"",""A"",""B"",""A""]]",Yes,0,1,1,1,1,A,,,,,,,,,,,,,,,,,,,,,
B,A,91,left,0,,,,,,91,Stimuli/neutral/Still.jpg,Stimuli/social/happy/F01-Happy Women.mp4,Stimuli/social/angry/F04-Angry Women.mp4,,vima01,001,2022-04-26_14h00.52.731,RALT_PLD,2020.2.10,Win32,60,B,0.8687,,,,,,"[[""A"",""A"",""B"",""B""],[""B"",""A"",""B"",""A""]]",Yes,0,2,2,2,1,B,,,,,,,,,,,,,,,,,,,,,
B,A,99,left,0,,,,,,99,Stimuli/neutral/Still.jpg,Stimuli/social/happy/F01-Happy Women.mp4,Stimuli/social/angry/F04-Angry Women.mp4,,vima01,001,2022-04-26_14h00.52.731,RALT_PLD,2020.2.10,Win32,60,B,1.0186,,,,,,"[[""A"",""A"",""B"",""B""],[""B"",""A"",""B"",""A""]]",No,0,3,3,0,1,A,,,,,,,,,,,,,,,,,,,,,
B,A,10,,,,,,,,,,,,,vima01,001,2022-04-26_14h00.52.731,RALT_PLD,2020.2.10,Win32,60,B,,,,,,,B,Yes,,,,,,,left,0,0.8498,Congruent,1,social,0,0,0,0,1,,,,,,,,,,
B,A,94,,,,,,,,,,,,,vima01,001,2022-04-26_14h00.52.731,RALT_PLD,2020.2.10,Win32,60,A,,,,,,,A,Yes,,,,,,,right,0,1.2695,Congruent,1,social,1,0,1,0,1,,,,,,,,,,
B,A,50,,,,,,,,,,,,,vima01,001,2022-04-26_14h00.52.731,RALT_PLD,2020.2.10,Win32,60,A,,,,,,,B,No,,,,,,,right,0,1.1722,Congruent,0,social,2,0,2,0,1,,,,,,,,,,
B,A,92,,,,,,,,,,,,,vima01,001,2022-04-26_14h00.52.731,RALT_PLD,2020.2.10,Win32,60,B,,,,,,,A,No,,,,,,,left,0,0.7299,Congruent,0,social,3,0,3,0,1,,,,,,,,,,
,,,,,,,,,,,,,,,vima01,001,2022-04-26_14h00.52.731,RALT_PLD,2020.2.10,Win32,60,,,,,,,,,,,,,,,,,,,,,,,,,,,0,0,0,0,1,,,,,
B,A,94,,,,,,,,,,,,,vima01,001,2022-04-26_14h00.52.731,RALT_PLD,2020.2.10,Win32,60,B,,,,,,,A,No,,,,,,,left,0,1.8708,Congruent,0,social,0,0,0,0,1,,,,,,,,,,
B,A,10,,,,,,,,,,,,,vima01,001,2022-04-26_14h00.52.731,RALT_PLD,2020.2.10,Win32,60,A,,,,,,,B,No,,,,,,,right,0,1.5765,Congruent,0,social,1,0,1,0,1,,,,,,,,,,
B,A,50,,,,,,,,,,,,,vima01,001,2022-04-26_14h00.52.731,RALT_PLD,2020.2.10,Win32,60,B,,,,,,,B,Yes,,,,,,,left,0,1.3456,Congruent,1,social,2,0,2,0,1,,,,,,,,,,
B,A,92,,,,,,,,,,,,,vima01,001,2022-04-26_14h00.52.731,RALT_PLD,2020.2.10,Win32,60,B,,,,,,,A,No,,,,,,,left,0,0.7636,Congruent,0,social,3,0,3,0,1,,,,,,,,,,
,,,,,,,,,,,,,,,vima01,001,2022-04-26_14h00.52.731,RALT_PLD,2020.2.10,Win32,60,,,,,,,,,,,,,,,,,,,,,,,,,,,1,0,1,0,1,,,,,
A,B,50,,,,,,,,,,,,,vima01,001,2022-04-26_14h00.52.731,RALT_PLD,2020.2.10,Win32,60,B,,,,,,,B,Yes,,,,,,,right,0,1.557,Congruent,1,social,0,0,0,0,1,,,,,,,,,,
A,B,92,,,,,,,,,,,,,vima01,001,2022-04-26_14h00.52.731,RALT_PLD,2020.2.10,Win32,60,A,,,,,,,A,Yes,,,,,,,left,0,1.1497,Incongruent,0,social,1,0,1,0,1,,,,,,,,,,
A,B,94,,,,,,,,,,,,,vima01,001,2022-04-26_14h00.52.731,RALT_PLD,2020.2.10,Win32,60,A,,,,,,,A,Yes,,,,,,,left,0,0.6187,Incongruent,0,social,2,0,2,0,1,,,,,,,,,,
A,B,10,,,,,,,,,,,,,vima01,001,2022-04-26_14h00.52.731,RALT_PLD,2020.2.10,Win32,60,B,,,,,,,B,Yes,,,,,,,right,0,1.0796,Congruent,1,social,3,0,3,0,1,,,,,,,,,,
,,,,,,,,,,,,,,,vima01,001,2022-04-26_14h00.52.731,RALT_PLD,2020.2.10,Win32,60,,,,,,,,,,,,,,,,,,,,,,,,,,,2,0,2,0,1,,,,,
B,A,94,,,,,,,,,,,,,vima01,001,2022-04-26_14h00.52.731,RALT_PLD,2020.2.10,Win32,60,B,,,,,,,A,No,,,,,,,left,0,1.5763,Congruent,0,social,0,0,0,0,1,,,,,,,,,,
B,A,50,,,,,,,,,,,,,vima01,001,2022-04-26_14h00.52.731,RALT_PLD,2020.2.10,Win32,60,B,,,,,,,B,Yes,,,,,,,left,0,1.8328,Congruent,1,social,1,0,1,0,1,,,,,,,,,,
B,A,10,,,,,,,,,,,,,vima01,001,2022-04-26_14h00.52.731,RALT_PLD,2020.2.10,Win32,60,B,,,,,,,B,Yes,,,,,,,left,0,1.4761,Congruent,1,social,2,0,2,0,1,,,,,,,,,,
B,A,92,,,,,,,,,,,,,vima01,001,2022-04-26_14h00.52.731,RALT_PLD,2020.2.10,Win32,60,B,,,,,,,A,No,,,,,,,left,0,1.4169,Congruent,0,social,3,0,3,0,1,,,,,,,,,,
,,,,,,,,,,,,,,,vima01,001,2022-04-26_14h00.52.731,RALT_PLD,2020.2.10,Win32,60,,,,,,,,,,,,,,,,,,,,,,,,,,,3,0,3,0,1,,,,,
A,B,92,,,,,,,,,,,,,vima01,001,2022-04-26_14h00.52.731,RALT_PLD,2020.2.10,Win32,60,A,,,,,,,A,Yes,,,,,,,left,0,0.8271,Congruent,1,social,0,0,0,0,1,,,,,,,,,,
A,B,10,,,,,,,,,,,,,vima01,001,2022-04-26_14h00.52.731,RALT_PLD,2020.2.10,Win32,60,B,,,,,,,B,Yes,,,,,,,right,0,1.0244,Congruent,1,social,1,0,1,0,1,,,,,,,,,,
A,B,50,,,,,,,,,,,,,vima01,001,2022-04-26_14h00.52.731,RALT_PLD,2020.2.10,Win32,60,B,,,,,,,B,Yes,,,,,,,right,0,2.6406,Congruent,1,social,2,0,2,0,1,,,,,,,,,,
A,B,94,,,,,,,,,,,,,vima01,001,2022-04-26_14h00.52.731,RALT_PLD,2020.2.10,Win32,60,A,,,,,,,A,Yes,,,,,,,left,0,0.6499,Congruent,1,social,3,0,3,0,1,,,,,,,,,,
,,,,,,,,,,,,,,,vima01,001,2022-04-26_14h00.52.731,RALT_PLD,2020.2.10,Win32,60,,,,,,,,,,,,,,,,,,,,,,,,,,,4,0,4,0,1,,,,,
B,A,10,,,,,,,,,,,,,vima01,001,2022-04-26_14h00.52.731,RALT_PLD,2020.2.10,Win32,60,B,,,,,,,B,Yes,,,,,,,left,0,1.2316,Congruent,1,social,0,0,0,0,1,,,,,,,,,,
B,A,50,,,,,,,,,,,,,vima01,001,2022-04-26_14h00.52.731,RALT_PLD,2020.2.10,Win32,60,B,,,,,,,B,Yes,,,,,,,left,0,1.7794,Congruent,1,social,1,0,1,0,1,,,,,,,,,,
B,A,92,,,,,,,,,,,,,vima01,001,2022-04-26_14h00.52.731,RALT_PLD,2020.2.10,Win32,60,A,,,,,,,A,Yes,,,,,,,right,0,1.4433,Congruent,1,social,2,0,2,0,1,,,,,,,,,,
B,A,94,,,,,,,,,,,,,vima01,001,2022-04-26_14h00.52.731,RALT_PLD,2020.2.10,Win32,60,B,,,,,,,A,No,,,,,,,left,0,1.0808,Congruent,0,social,3,0,3,0,1,,,,,,,,,,
,,,,,,,,,,,,,,,vima01,001,2022-04-26_14h00.52.731,RALT_PLD,2020.2.10,Win32,60,,,,,,,,,,,,,,,,,,,,,,,,,,,5,0,5,0,1,,,,,
,,,,,,,,,,,,,,,vima01,001,2022-04-26_14h00.52.731,RALT_PLD,2020.2.10,Win32,60,,,,,,,,,,,,,,,,,,,,,,,,,,,,,,,,0,0,0,0,1
B,A,41,,,,,,,,,,,,,vima01,001,2022-04-26_14h00.52.731,RALT_PLD,2020.2.10,Win32,60,A,,,,,,,A,Yes,,,,,,,right,0,1.2234,Congruent,1,nonsocial,0,0,0,0,1,,,,,,,,,,
B,A,47,,,,,,,,,,,,,vima01,001,2022-04-26_14h00.52.731,RALT_PLD,2020.2.10,Win32,60,B,,,,,,,B,Yes,,,,,,,left,0,1.0486,Congruent,1,nonsocial,1,0,1,0,1,,,,,,,,,,
B,A,55,,,,,,,,,,,,,vima01,001,2022-04-26_14h00.52.731,RALT_PLD,2020.2.10,Win32,60,B,,,,,,,B,Yes,,,,,,,left,0,1.4375,Congruent,1,nonsocial,2,0,2,0,1,,,,,,,,,,
B,A,13,,,,,,,,,,,,,vima01,001,2022-04-26_14h00.52.731,RALT_PLD,2020.2.10,Win32,60,A,,,,,,,A,Yes,,,,,,,right,0,0.7163,Congruent,1,nonsocial,3,0,3,0,1,,,,,,,,,,
,,,,,,,,,,,,,,,vima01,001,2022-04-26_14h00.52.731,RALT_PLD,2020.2.10,Win32,60,,,,,,,,,,,,,,,,,,,,,,,,,,,0,0,0,0,1,,,,,
B,A,55,,,,,,,,,,,,,vima01,001,2022-04-26_14h00.52.731,RALT_PLD,2020.2.10,Win32,60,B,,,,,,,B,Yes,,,,,,,left,0,1.3569,Congruent,1,nonsocial,0,0,0,0,1,,,,,,,,,,
B,A,41,,,,,,,,,,,,,vima01,001,2022-04-26_14h00.52.731,RALT_PLD,2020.2.10,Win32,60,B,,,,,,,A,No,,,,,,,left,0,0.8137,Incongruent,1,nonsocial,1,0,1,0,1,,,,,,,,,,
B,A,47,,,,,,,,,,,,,vima01,001,2022-04-26_14h00.52.731,RALT_PLD,2020.2.10,Win32,60,A,,,,,,,B,No,,,,,,,right,0,1.6607,Congruent,0,nonsocial,2,0,2,0,1,,,,,,,,,,
B,A,13,,,,,,,,,,,,,vima01,001,2022-04-26_14h00.52.731,RALT_PLD,2020.2.10,Win32,60,A,,,,,,,A,Yes,,,,,,,right,0,0.6323,Congruent,1,nonsocial,3,0,3,0,1,,,,,,,,,,
,,,,,,,,,,,,,,,vima01,001,2022-04-26_14h00.52.731,RALT_PLD,2020.2.10,Win32,60,,,,,,,,,,,,,,,,,,,,,,,,,,,1,0,1,0,1,,,,,
A,B,41,,,,,,,,,,,,,vima01,001,2022-04-26_14h00.52.731,RALT_PLD,2020.2.10,Win32,60,B,,,,,,,A,No,,,,,,,right,0,1.7801,Congruent,0,nonsocial,0,0,0,0,1,,,,,,,,,,
A,B,55,,,,,,,,,,,,,vima01,001,2022-04-26_14h00.52.731,RALT_PLD,2020.2.10,Win32,60,B,,,,,,,B,Yes,,,,,,,right,0,1.0478,Incongruent,0,nonsocial,1,0,1,0,1,,,,,,,,,,
A,B,13,,,,,,,,,,,,,vima01,001,2022-04-26_14h00.52.731,RALT_PLD,2020.2.10,Win32,60,A,,,,,,,A,Yes,,,,,,,left,0,0.8207,Congruent,1,nonsocial,2,0,2,0,1,,,,,,,,,,
A,B,47,,,,,,,,,,,,,vima01,001,2022-04-26_14h00.52.731,RALT_PLD,2020.2.10,Win32,60,B,,,,,,,B,Yes,,,,,,,right,0,1.3016,Incongruent,0,nonsocial,3,0,3,0,1,,,,,,,,,,
,,,,,,,,,,,,,,,vima01,001,2022-04-26_14h00.52.731,RALT_PLD,2020.2.10,Win32,60,,,,,,,,,,,,,,,,,,,,,,,,,,,2,0,2,0,1,,,,,
A,B,13,,,,,,,,,,,,,vima01,001,2022-04-26_14h00.52.731,RALT_PLD,2020.2.10,Win32,60,A,,,,,,,A,Yes,,,,,,,left,0,0.8784,Congruent,1,nonsocial,0,0,0,0,1,,,,,,,,,,
A,B,55,,,,,,,,,,,,,vima01,001,2022-04-26_14h00.52.731,RALT_PLD,2020.2.10,Win32,60,B,,,,,,,B,Yes,,,,,,,right,0,1.9295,Congruent,1,nonsocial,1,0,1,0,1,,,,,,,,,,
A,B,47,,,,,,,,,,,,,vima01,001,2022-04-26_14h00.52.731,RALT_PLD,2020.2.10,Win32,60,A,,,,,,,B,No,,,,,,,left,0,0.9242,Congruent,0,nonsocial,2,0,2,0,1,,,,,,,,,,
A,B,41,,,,,,,,,,,,,vima01,001,2022-04-26_14h00.52.731,RALT_PLD,2020.2.10,Win32,60,A,,,,,,,A,Yes,,,,,,,left,0,0.3676,Congruent,1,nonsocial,3,0,3,0,1,,,,,,,,,,
,,,,,,,,,,,,,,,vima01,001,2022-04-26_14h00.52.731,RALT_PLD,2020.2.10,Win32,60,,,,,,,,,,,,,,,,,,,,,,,,,,,3,0,3,0,1,,,,,
A,B,41,,,,,,,,,,,,,vima01,001,2022-04-26_14h00.52.731,RALT_PLD,2020.2.10,Win32,60,A,,,,,,,A,Yes,,,,,,,left,0,1.4072,Congruent,1,nonsocial,0,0,0,0,1,,,,,,,,,,
A,B,13,,,,,,,,,,,,,vima01,001,2022-04-26_14h00.52.731,RALT_PLD,2020.2.10,Win32,60,A,,,,,,,A,Yes,,,,,,,left,0,1.0051,Congruent,1,nonsocial,1,0,1,0,1,,,,,,,,,,
A,B,47,,,,,,,,,,,,,vima01,001,2022-04-26_14h00.52.731,RALT_PLD,2020.2.10,Win32,60,B,,,,,,,B,Yes,,,,,,,right,0,0.4821,Congruent,1,nonsocial,2,0,2,0,1,,,,,,,,,,
A,B,55,,,,,,,,,,,,,vima01,001,2022-04-26_14h00.52.731,RALT_PLD,2020.2.10,Win32,60,B,,,,,,,B,Yes,,,,,,,right,0,1.0471,Congruent,1,nonsocial,3,0,3,0,1,,,,,,,,,,
,,,,,,,,,,,,,,,vima01,001,2022-04-26_14h00.52.731,RALT_PLD,2020.2.10,Win32,60,,,,,,,,,,,,,,,,,,,,,,,,,,,4,0,4,0,1,,,,,
B,A,55,,,,,,,,,,,,,vima01,001,2022-04-26_14h00.52.731,RALT_PLD,2020.2.10,Win32,60,B,,,,,,,B,Yes,,,,,,,left,0,1.8135,Congruent,1,nonsocial,0,0,0,0,1,,,,,,,,,,
B,A,13,,,,,,,,,,,,,vima01,001,2022-04-26_14h00.52.731,RALT_PLD,2020.2.10,Win32,60,A,,,,,,,A,Yes,,,,,,,right,0,1.0031,Congruent,1,nonsocial,1,0,1,0,1,,,,,,,,,,
B,A,47,,,,,,,,,,,,,vima01,001,2022-04-26_14h00.52.731,RALT_PLD,2020.2.10,Win32,60,B,,,,,,,B,Yes,,,,,,,left,0,2.2833,Congruent,1,nonsocial,2,0,2,0,1,,,,,,,,,,
B,A,41,,,,,,,,,,,,,vima01,001,2022-04-26_14h00.52.731,RALT_PLD,2020.2.10,Win32,60,A,,,,,,,A,Yes,,,,,,,right,0,1.2966,Congruent,1,nonsocial,3,0,3,0,1,,,,,,,,,,
,,,,,,,,,,,,,,,vima01,001,2022-04-26_14h00.52.731,RALT_PLD,2020.2.10,Win32,60,,,,,,,,,,,,,,,,,,,,,,,,,,,5,0,5,0,1,,,,,
,,,,,,,,,,,,,,,vima01,001,2022-04-26_14h00.52.731,RALT_PLD,2020.2.10,Win32,60,,,,,,,,,,,,,,,,,,,,,,,,,,,,,,,,1,0,1,0,1
B,A,92,,,,,,,,,,,,,vima01,001,2022-04-26_14h00.52.731,RALT_PLD,2020.2.10,Win32,60,A,,,,,,,A,Yes,,,,,,,right,0,1.8982,Congruent,1,social,0,0,0,0,1,,,,,,,,,,
B,A,94,,,,,,,,,,,,,vima01,001,2022-04-26_14h00.52.731,RALT_PLD,2020.2.10,Win32,60,A,,,,,,,A,Yes,,,,,,,right,0,2.4654,Congruent,1,social,1,0,1,0,1,,,,,,,,,,
B,A,50,,,,,,,,,,,,,vima01,001,2022-04-26_14h00.52.731,RALT_PLD,2020.2.10,Win32,60,B,,,,,,,B,Yes,,,,,,,left,0,1.6019,Congruent,1,social,2,0,2,0,1,,,,,,,,,,
B,A,10,,,,,,,,,,,,,vima01,001,2022-04-26_14h00.52.731,RALT_PLD,2020.2.10,Win32,60,A,,,,,,,B,No,,,,,,,right,0,1.549,Congruent,0,social,3,0,3,0,1,,,,,,,,,,
,,,,,,,,,,,,,,,vima01,001,2022-04-26_14h00.52.731,RALT_PLD,2020.2.10,Win32,60,,,,,,,,,,,,,,,,,,,,,,,,,,,0,0,0,0,1,,,,,
A,B,94,,,,,,,,,,,,,vima01,001,2022-04-26_14h00.52.731,RALT_PLD,2020.2.10,Win32,60,A,,,,,,,A,Yes,,,,,,,left,0,1.895,Congruent,1,social,0,0,0,0,1,,,,,,,,,,
A,B,10,,,,,,,,,,,,,vima01,001,2022-04-26_14h00.52.731,RALT_PLD,2020.2.10,Win32,60,B,,,,,,,B,Yes,,,,,,,right,0,1.8666,Congruent,1,social,1,0,1,0,1,,,,,,,,,,
A,B,50,,,,,,,,,,,,,vima01,001,2022-04-26_14h00.52.731,RALT_PLD,2020.2.10,Win32,60,A,,,,,,,B,No,,,,,,,left,0,2.3372,Congruent,0,social,2,0,2,0,1,,,,,,,,,,
A,B,92,,,,,,,,,,,,,vima01,001,2022-04-26_14h00.52.731,RALT_PLD,2020.2.10,Win32,60,A,,,,,,,A,Yes,,,,,,,left,0,1.1114,Congruent,1,social,3,0,3,0,1,,,,,,,,,,
,,,,,,,,,,,,,,,vima01,001,2022-04-26_14h00.52.731,RALT_PLD,2020.2.10,Win32,60,,,,,,,,,,,,,,,,,,,,,,,,,,,1,0,1,0,1,,,,,
B,A,94,,,,,,,,,,,,,vima01,001,2022-04-26_14h00.52.731,RALT_PLD,2020.2.10,Win32,60,A,,,,,,,A,Yes,,,,,,,right,0,1.2024,Congruent,1,social,0,0,0,0,1,,,,,,,,,,
B,A,92,,,,,,,,,,,,,vima01,001,2022-04-26_14h00.52.731,RALT_PLD,2020.2.10,Win32,60,A,,,,,,,A,Yes,,,,,,,right,0,0.9163,Congruent,1,social,1,0,1,0,1,,,,,,,,,,
B,A,10,,,,,,,,,,,,,vima01,001,2022-04-26_14h00.52.731,RALT_PLD,2020.2.10,Win32,60,B,,,,,,,B,Yes,,,,,,,left,0,0.6187,Congruent,1,social,2,0,2,0,1,,,,,,,,,,
B,A,50,,,,,,,,,,,,,vima01,001,2022-04-26_14h00.52.731,RALT_PLD,2020.2.10,Win32,60,B,,,,,,,B,Yes,,,,,,,left,0,1.2139,Congruent,1,social,3,0,3,0,1,,,,,,,,,,
,,,,,,,,,,,,,,,vima01,001,2022-04-26_14h00.52.731,RALT_PLD,2020.2.10,Win32,60,,,,,,,,,,,,,,,,,,,,,,,,,,,2,0,2,0,1,,,,,
B,A,50,,,,,,,,,,,,,vima01,001,2022-04-26_14h00.52.731,RALT_PLD,2020.2.10,Win32,60,B,,,,,,,B,Yes,,,,,,,left,0,1.0734,Congruent,1,social,0,0,0,0,1,,,,,,,,,,
B,A,92,,,,,,,,,,,,,vima01,001,2022-04-26_14h00.52.731,RALT_PLD,2020.2.10,Win32,60,A,,,,,,,A,Yes,,,,,,,right,0,1.2528,Congruent,1,social,1,0,1,0,1,,,,,,,,,,
B,A,94,,,,,,,,,,,,,vima01,001,2022-04-26_14h00.52.731,RALT_PLD,2020.2.10,Win32,60,A,,,,,,,A,Yes,,,,,,,right,0,0.7757,Incongruent,0,social,2,0,2,0,1,,,,,,,,,,
B,A,10,,,,,,,,,,,,,vima01,001,2022-04-26_14h00.52.731,RALT_PLD,2020.2.10,Win32,60,B,,,,,,,B,Yes,,,,,,,left,0,0.8281,Congruent,1,social,3,0,3,0,1,,,,,,,,,,
,,,,,,,,,,,,,,,vima01,001,2022-04-26_14h00.52.731,RALT_PLD,2020.2.10,Win32,60,,,,,,,,,,,,,,,,,,,,,,,,,,,3,0,3,0,1,,,,,
B,A,50,,,,,,,,,,,,,vima01,001,2022-04-26_14h00.52.731,RALT_PLD,2020.2.10,Win32,60,B,,,,,,,B,Yes,,,,,,,left,0,0.8551,Incongruent,0,social,0,0,0,0,1,,,,,,,,,,
B,A,92,,,,,,,,,,,,,vima01,001,2022-04-26_14h00.52.731,RALT_PLD,2020.2.10,Win32,60,A,,,,,,,A,Yes,,,,,,,right,0,2.412,Congruent,1,social,1,0,1,0,1,,,,,,,,,,
B,A,94,,,,,,,,,,,,,vima01,001,2022-04-26_14h00.52.731,RALT_PLD,2020.2.10,Win32,60,A,,,,,,,A,Yes,,,,,,,right,0,3.3909,Incongruent,0,social,2,0,2,0,1,,,,,,,,,,
B,A,10,,,,,,,,,,,,,vima01,001,2022-04-26_14h00.52.731,RALT_PLD,2020.2.10,Win32,60,B,,,,,,,B,Yes,,,,,,,left,0,1.0974,Congruent,1,social,3,0,3,0,1,,,,,,,,,,
,,,,,,,,,,,,,,,vima01,001,2022-04-26_14h00.52.731,RALT_PLD,2020.2.10,Win32,60,,,,,,,,,,,,,,,,,,,,,,,,,,,4,0,4,0,1,,,,,
A,B,10,,,,,,,,,,,,,vima01,001,2022-04-26_14h00.52.731,RALT_PLD,2020.2.10,Win32,60,B,,,,,,,B,Yes,,,,,,,right,0,0.944,Incongruent,0,social,0,0,0,0,1,,,,,,,,,,
A,B,50,,,,,,,,,,,,,vima01,001,2022-04-26_14h00.52.731,RALT_PLD,2020.2.10,Win32,60,B,,,,,,,B,Yes,,,,,,,right,0,0.642,Congruent,1,social,1,0,1,0,1,,,,,,,,,,
A,B,94,,,,,,,,,,,,,vima01,001,2022-04-26_14h00.52.731,RALT_PLD,2020.2.10,Win32,60,A,,,,,,,A,Yes,,,,,,,left,0,1.3766,Congruent,1,social,2,0,2,0,1,,,,,,,,,,
A,B,92,,,,,,,,,,,,,vima01,001,2022-04-26_14h00.52.731,RALT_PLD,2020.2.10,Win32,60,A,,,,,,,A,Yes,,,,,,,left,0,1.1708,Congruent,1,social,3,0,3,0,1,,,,,,,,,,
,,,,,,,,,,,,,,,vima01,001,2022-04-26_14h00.52.731,RALT_PLD,2020.2.10,Win32,60,,,,,,,,,,,,,,,,,,,,,,,,,,,5,0,5,0,1,,,,,
,,,,,,,,,,,,,,,vima01,001,2022-04-26_14h00.52.731,RALT_PLD,2020.2.10,Win32,60,,,,,,,,,,,,,,,,,,,,,,,,,,,,,,,,2,0,2,0,1
B,A,41,,,,,,,,,,,,,vima01,001,2022-04-26_14h00.52.731,RALT_PLD,2020.2.10,Win32,60,A,,,,,,,A,Yes,,,,,,,right,0,2.352,Congruent,1,nonsocial,0,0,0,0,1,,,,,,,,,,
B,A,55,,,,,,,,,,,,,vima01,001,2022-04-26_14h00.52.731,RALT_PLD,2020.2.10,Win32,60,B,,,,,,,B,Yes,,,,,,,left,0,2.0232,Congruent,1,nonsocial,1,0,1,0,1,,,,,,,,,,
B,A,13,,,,,,,,,,,,,vima01,001,2022-04-26_14h00.52.731,RALT_PLD,2020.2.10,Win32,60,A,,,,,,,A,Yes,,,,,,,right,0,1.6292,Congruent,1,nonsocial,2,0,2,0,1,,,,,,,,,,
B,A,47,,,,,,,,,,,,,vima01,001,2022-04-26_14h00.52.731,RALT_PLD,2020.2.10,Win32,60,B,,,,,,,B,Yes,,,,,,,left,0,2.0827,Congruent,1,nonsocial,3,0,3,0,1,,,,,,,,,,
,,,,,,,,,,,,,,,vima01,001,2022-04-26_14h00.52.731,RALT_PLD,2020.2.10,Win32,60,,,,,,,,,,,,,,,,,,,,,,,,,,,0,0,0,0,1,,,,,
B,A,13,,,,,,,,,,,,,vima01,001,2022-04-26_14h00.52.731,RALT_PLD,2020.2.10,Win32,60,A,,,,,,,A,Yes,,,,,,,right,0,1.0515,Incongruent,0,nonsocial,0,0,0,0,1,,,,,,,,,,
B,A,41,,,,,,,,,,,,,vima01,001,2022-04-26_14h00.52.731,RALT_PLD,2020.2.10,Win32,60,A,,,,,,,A,Yes,,,,,,,right,0,1.3505,Congruent,1,nonsocial,1,0,1,0,1,,,,,,,,,,
B,A,47,,,,,,,,,,,,,vima01,001,2022-04-26_14h00.52.731,RALT_PLD,2020.2.10,Win32,60,B,,,,,,,B,Yes,,,,,,,left,0,1.282,Congruent,1,nonsocial,2,0,2,0,1,,,,,,,,,,
B,A,55,,,,,,,,,,,,,vima01,001,2022-04-26_14h00.52.731,RALT_PLD,2020.2.10,Win32,60,B,,,,,,,B,Yes,,,,,,,left,0,1.2399,Congruent,1,nonsocial,3,0,3,0,1,,,,,,,,,,
,,,,,,,,,,,,,,,vima01,001,2022-04-26_14h00.52.731,RALT_PLD,2020.2.10,Win32,60,,,,,,,,,,,,,,,,,,,,,,,,,,,1,0,1,0,1,,,,,
B,A,47,,,,,,,,,,,,,vima01,001,2022-04-26_14h00.52.731,RALT_PLD,2020.2.10,Win32,60,B,,,,,,,B,Yes,,,,,,,left,0,1.496,Congruent,1,nonsocial,0,0,0,0,1,,,,,,,,,,
B,A,13,,,,,,,,,,,,,vima01,001,2022-04-26_14h00.52.731,RALT_PLD,2020.2.10,Win32,60,A,,,,,,,A,Yes,,,,,,,right,0,1.3421,Congruent,1,nonsocial,1,0,1,0,1,,,,,,,,,,
B,A,41,,,,,,,,,,,,,vima01,001,2022-04-26_14h00.52.731,RALT_PLD,2020.2.10,Win32,60,A,,,,,,,A,Yes,,,,,,,right,0,0.8078,Congruent,1,nonsocial,2,0,2,0,1,,,,,,,,,,
B,A,55,,,,,,,,,,,,,vima01,001,2022-04-26_14h00.52.731,RALT_PLD,2020.2.10,Win32,60,B,,,,,,,B,Yes,,,,,,,left,0,0.596,Congruent,1,nonsocial,3,0,3,0,1,,,,,,,,,,
,,,,,,,,,,,,,,,vima01,001,2022-04-26_14h00.52.731,RALT_PLD,2020.2.10,Win32,60,,,,,,,,,,,,,,,,,,,,,,,,,,,2,0,2,0,1,,,,,
B,A,47,,,,,,,,,,,,,vima01,001,2022-04-26_14h00.52.731,RALT_PLD,2020.2.10,Win32,60,B,,,,,,,B,Yes,,,,,,,left,0,1.5965,Congruent,1,nonsocial,0,0,0,0,1,,,,,,,,,,
B,A,13,,,,,,,,,,,,,vima01,001,2022-04-26_14h00.52.731,RALT_PLD,2020.2.10,Win32,60,A,,,,,,,A,Yes,,,,,,,right,0,0.6183,Congruent,1,nonsocial,1,0,1,0,1,,,,,,,,,,
B,A,41,,,,,,,,,,,,,vima01,001,2022-04-26_14h00.52.731,RALT_PLD,2020.2.10,Win32,60,A,,,,,,,A,Yes,,,,,,,right,0,1.8615,Congruent,1,nonsocial,2,0,2,0,1,,,,,,,,,,
B,A,55,,,,,,,,,,,,,vima01,001,2022-04-26_14h00.52.731,RALT_PLD,2020.2.10,Win32,60,B,,,,,,,B,Yes,,,,,,,left,0,1.0637,Congruent,1,nonsocial,3,0,3,0,1,,,,,,,,,,
,,,,,,,,,,,,,,,vima01,001,2022-04-26_14h00.52.731,RALT_PLD,2020.2.10,Win32,60,,,,,,,,,,,,,,,,,,,,,,,,,,,3,0,3,0,1,,,,,
B,A,41,,,,,,,,,,,,,vima01,001,2022-04-26_14h00.52.731,RALT_PLD,2020.2.10,Win32,60,A,,,,,,,A,Yes,,,,,,,right,0,3.178,Incongruent,0,nonsocial,0,0,0,0,1,,,,,,,,,,
B,A,13,,,,,,,,,,,,,vima01,001,2022-04-26_14h00.52.731,RALT_PLD,2020.2.10,Win32,60,A,,,,,,,A,Yes,,,,,,,right,0,1.9668,Congruent,1,nonsocial,1,0,1,0,1,,,,,,,,,,
B,A,47,,,,,,,,,,,,,vima01,001,2022-04-26_14h00.52.731,RALT_PLD,2020.2.10,Win32,60,B,,,,,,,B,Yes,,,,,,,left,0,2.1713,Incongruent,0,nonsocial,2,0,2,0,1,,,,,,,,,,
B,A,55,,,,,,,,,,,,,vima01,001,2022-04-26_14h00.52.731,RALT_PLD,2020.2.10,Win32,60,B,,,,,,,B,Yes,,,,,,,left,0,2.0813,Congruent,1,nonsocial,3,0,3,0,1,,,,,,,,,,
,,,,,,,,,,,,,,,vima01,001,2022-04-26_14h00.52.731,RALT_PLD,2020.2.10,Win32,60,,,,,,,,,,,,,,,,,,,,,,,,,,,4,0,4,0,1,,,,,
B,A,13,,,,,,,,,,,,,vima01,001,2022-04-26_14h00.52.731,RALT_PLD,2020.2.10,Win32,60,A,,,,,,,A,Yes,,,,,,,right,0,3.4015,Incongruent,0,nonsocial,0,0,0,0,1,,,,,,,,,,
B,A,41,,,,,,,,,,,,,vima01,001,2022-04-26_14h00.52.731,RALT_PLD,2020.2.10,Win32,60,A,,,,,,,A,Yes,,,,,,,right,0,2.4284,Congruent,1,nonsocial,1,0,1,0,1,,,,,,,,,,
B,A,47,,,,,,,,,,,,,vima01,001,2022-04-26_14h00.52.731,RALT_PLD,2020.2.10,Win32,60,B,,,,,,,B,Yes,,,,,,,left,0,1.4823,Congruent,1,nonsocial,2,0,2,0,1,,,,,,,,,,
B,A,55,,,,,,,,,,,,,vima01,001,2022-04-26_14h00.52.731,RALT_PLD,2020.2.10,Win32,60,B,,,,,,,B,Yes,,,,,,,left,0,1.9109,Congruent,1,nonsocial,3,0,3,0,1,,,,,,,,,,
,,,,,,,,,,,,,,,vima01,001,2022-04-26_14h00.52.731,RALT_PLD,2020.2.10,Win32,60,,,,,,,,,,,,,,,,,,,,,,,,,,,5,0,5,0,1,,,,,
,,,,,,,,,,,,,,,vima01,001,2022-04-26_14h00.52.731,RALT_PLD,2020.2.10,Win32,60,,,,,,,,,,,,,,,,,,,,,,,,,,,,,,,,3,0,3,0,1
